timestamp,ax,ay,az,roll,pitch,wx,wy,wz,mx,my,mz
1603783092.70582104,0.00927200,-0.00366000,1.01321000,-0.08964610,-1.09306699,0.03930500,0.59122000,0.29190000,0.18854136,-1.57103186,-0.12364806
1603783092.76822066,-0.00963800,-0.03111000,1.02309200,-0.16282160,0.00829249,0.14430500,0.80122000,-0.05810000,0.18401052,-1.57702426,-0.12320959
1603783092.82956839,-0.00158600,-0.00292800,1.01882200,-0.16076753,-0.09524272,-0.13569500,0.48622000,-0.02310000,0.18401052,-1.57702426,-0.12320959
1603783092.89111567,-0.00097600,-0.00244000,1.02065200,-0.02103001,-0.18233501,0.14430500,0.24122000,-0.02310000,0.18664133,-1.57731657,-0.12130956
1603783092.95231485,-0.00866200,-0.00097600,1.02431200,0.09682591,-0.21036964,0.03930500,0.03122000,-0.05810000,0.18342590,-1.56693949,-0.11970184
1603783093.01359606,-0.00841800,-0.00122000,1.02260400,0.12416079,0.23584172,0.03930500,0.24122000,-0.02310000,0.18342590,-1.56693949,-0.11970184
1603783093.07486439,-0.00463600,-0.00097600,1.02687400,0.06291933,0.02063523,0.38930500,-0.59878000,0.08190000,0.17787197,-1.57512423,-0.12174803
1603783093.13621783,-0.00695400,-0.00280600,1.01223400,0.08967615,-0.06502683,0.07430500,-0.07378000,-0.02310000,0.17787197,-1.57512423,-0.12174803
1603783093.19767499,-0.00768600,-0.00085400,1.02980200,0.17209259,0.19384164,-0.13569500,0.45122000,0.01190000,0.18254896,-1.57527039,-0.12043262
1603783093.25892639,-0.00756400,-0.00414800,1.02736200,-0.11402719,0.18416541,0.03930500,0.20622000,-0.23310000,0.18181818,-1.57293189,-0.12686349
1603783093.32023787,-0.00463600,0.03062200,1.02504400,0.11729844,0.19194167,0.10930500,-0.38878000,-0.19810000,0.18181818,-1.57293189,-0.12686349
1603783093.38143516,-0.00231800,-0.00305000,1.02358000,-0.06681458,-1.85398106,0.21430500,-0.03878000,-0.05810000,0.17816428,-1.57673195,-0.12364806
1603783093.44267464,-0.00805200,-0.00097600,1.02968000,0.06299132,0.21037189,0.28430500,0.20622000,-0.12810000,0.18605671,-1.57103186,-0.11648641
1603783093.50512648,-0.00561200,-0.00219600,1.03358400,-0.00443177,0.15457821,-0.06569500,0.38122000,0.01190000,0.18605671,-1.57103186,-0.11648641
1603783093.56748438,-0.00439200,-0.00219600,1.02980200,0.07657195,-0.02724569,0.14430500,0.31122000,-0.12810000,0.18444899,-1.57614733,-0.12554809
1603783093.62995100,-0.00292800,-0.00183000,1.02614200,0.05599046,-0.31259832,0.03930500,0.59122000,0.11690000,0.18444899,-1.57614733,-0.12554809
1603783093.69236946,-0.00427000,-0.00170800,1.02333600,0.00094119,-0.29242266,0.03930500,0.27622000,-0.05810000,0.18897983,-1.57278574,-0.12160187
1603783093.75477123,-0.00756400,-0.00317200,1.02602000,0.09005419,0.12332222,0.03930500,0.52122000,-0.30310000,0.18488746,-1.57161649,-0.11780181
1603783093.81780958,-0.00451400,-0.00012200,1.02553200,-0.15521158,-0.12184994,0.31930500,-0.14378000,-0.26810000,0.18488746,-1.57161649,-0.11780181
1603783093.88065362,-0.00512400,-0.00073200,1.02675200,0.00228943,0.08706650,0.07430500,0.17122000,0.11690000,0.18474130,-1.57658579,-0.12087109
1603783093.94310737,-0.00524600,-0.00146400,1.02602000,0.07632464,0.05598042,0.07430500,0.24122000,-0.09310000,0.19175680,-1.57220111,-0.12160187
1603783094.00577664,-0.00536800,-0.00244000,1.02504400,-0.19776945,0.06370281,0.03930500,0.24122000,0.01190000,0.19175680,-1.57220111,-0.12160187
1603783094.06829453,-0.00512400,-0.00195200,1.02492200,1.76069863,0.04989047,0.21430500,0.10122000,-0.19810000,0.18649518,-1.57746273,-0.11970184
1603783094.13084793,-0.00634400,-0.00170800,1.02419000,0.02225993,0.11533588,0.10930500,0.20622000,-0.23310000,0.17904122,-1.57950892,-0.11867875
1603783094.19359136,-0.00622200,-0.00268400,1.02614200,-0.03256259,0.10974050,-0.27569500,0.62622000,0.04690000,0.17904122,-1.57950892,-0.11867875
1603783094.25592804,-0.00292800,-0.00061000,1.03114400,0.08340405,0.04704764,-0.20569500,0.52122000,0.01190000,0.18868752,-1.57293189,-0.11195557
1603783094.31830478,-0.00512400,-0.00207400,1.02004200,0.07618258,0.07070401,0.10930500,-0.49378000,-0.16310000,0.18868752,-1.57293189,-0.11195557
1603783094.38073730,-0.00268400,-0.00268400,1.02211600,0.02155612,0.06323932,0.00430500,-0.17878000,-0.23310000,0.18430284,-1.57673195,-0.11224788
1603783094.44325256,-0.00390400,0.00061000,1.02443400,-0.02520465,0.31199627,0.21430500,-0.17878000,-0.02310000,0.18488746,-1.57936276,-0.11590178
1603783094.50583220,-0.00475800,-0.00439200,1.02455600,-0.01950983,-0.03245369,-0.03069500,0.41622000,-0.02310000,0.18488746,-1.57936276,-0.11590178
1603783094.56818414,-0.00488000,-0.00219600,1.02358000,-0.14896633,0.03542578,0.28430500,-0.10878000,-0.09310000,0.18810289,-1.57205495,-0.11707103
1603783094.63076067,-0.00658800,-0.00427000,1.02394600,0.02240623,0.12834878,0.07430500,0.24122000,-0.09310000,0.18094125,-1.57190880,-0.11502485
1603783094.69333839,-0.00280600,-0.00244000,1.02406800,-0.01832817,-0.08169569,-0.06569500,0.55622000,0.01190000,0.18094125,-1.57190880,-0.11502485
1603783094.75587177,-0.00610000,-0.00402600,1.02577600,-0.10853974,0.10451386,0.10930500,0.20622000,0.01190000,0.18547208,-1.56562409,-0.11984800
1603783094.81838918,-0.00512400,-0.00134200,1.02528800,0.04230494,0.04867358,0.21430500,-0.03878000,-0.19810000,0.17947968,-1.56957030,-0.11794797
1603783094.88074732,-0.00536800,-0.00207400,1.02455600,0.00131571,-0.07392591,0.14430500,0.24122000,-0.12810000,0.17947968,-1.56957030,-0.11794797
1603783094.94321036,-0.00573400,-0.00427000,1.02931400,-0.01172876,0.06792559,0.21430500,-0.17878000,-0.16310000,0.18459515,-1.57775504,-0.11692488
1603783095.00569248,-0.00353800,-0.00439200,1.03175400,0.02922411,-0.23766634,-0.03069500,0.31122000,0.15190000,0.18459515,-1.57775504,-0.11692488
1603783095.06807280,-0.00451400,-0.00097600,1.02406800,0.04217135,0.11748205,-0.10069500,0.38122000,0.22190000,0.18605671,-1.57483192,-0.11765566
1603783095.13051629,-0.00353800,-0.00012200,1.02455600,0.20605487,-0.16939217,0.03930500,0.17122000,0.01190000,0.18035662,-1.57819351,-0.12130956
1603783095.19327092,-0.00817400,-0.00207400,1.02589800,-0.07972472,0.30585290,0.03930500,0.34622000,-0.02310000,0.18035662,-1.57819351,-0.12130956
1603783095.25566483,-0.00488000,-0.00085400,1.02541000,-0.23490746,0.03326058,0.17930500,-0.21378000,-0.12810000,0.18897983,-1.57527039,-0.11999415
1603783095.31819153,-0.00634400,-0.00439200,1.02504400,-0.12816104,0.11688741,0.00430500,0.13622000,0.01190000,0.18371821,-1.57132417,-0.11254019
1603783095.38052487,-0.00329400,-0.00097600,1.02541000,0.06278973,-0.05369916,-0.17069500,0.90622000,0.22190000,0.18371821,-1.57132417,-0.11254019
1603783095.44312811,-0.00488000,-0.00231800,1.02370200,-0.01243647,0.03546058,0.14430500,0.38122000,-0.19810000,0.18167203,-1.57263958,-0.12057878
1603783095.50568485,-0.00585600,-0.00122000,1.01931000,0.04872216,-0.05936779,0.38930500,-0.38878000,-0.05810000,0.18707980,-1.56840105,-0.11984800
1603783095.56808472,-0.00366000,-0.00414800,1.02772800,-0.01873117,-0.21726192,-0.03069500,0.24122000,0.11690000,0.18707980,-1.56840105,-0.11984800
1603783095.63050556,-0.00536800,-0.00268400,1.03565800,0.02955802,0.14029495,0.17930500,1.22122000,0.22190000,0.18386437,-1.57161649,-0.11984800
1603783095.69316363,-0.00305000,-0.00231800,1.05737400,0.15101339,0.01856818,0.10930500,0.24122000,0.08190000,0.18386437,-1.57161649,-0.11984800
1603783095.75565219,-0.00719800,-0.00378200,1.02577600,-0.05369176,-0.08035540,-0.10069500,0.62622000,-0.02310000,0.18064893,-1.57570886,-0.11984800
1603783095.81821752,-0.00329400,-0.00244000,1.02480000,-0.04677188,0.08363928,0.31930500,-0.21378000,-0.19810000,0.18664133,-1.56606255,-0.11999415
1603783095.88052607,-0.00451400,-0.00231800,1.02565400,0.04200910,0.01558037,-0.06569500,0.55622000,-0.09310000,0.18664133,-1.56606255,-0.11999415
1603783095.94286013,-0.00366000,-0.00329400,1.02638600,-0.06682092,-0.03308919,0.14430500,0.10122000,-0.05810000,0.18561824,-1.57117802,-0.12364806
1603783096.00526857,-0.00292800,-0.00158600,1.02382400,0.02854230,-0.07380870,0.17930500,0.24122000,-0.33810000,0.18517977,-1.57556270,-0.12101725
1603783096.06776261,-0.00695400,-0.00292800,1.02699600,-0.04739877,0.18780478,0.10930500,0.55622000,-0.23310000,0.18517977,-1.57556270,-0.12101725
1603783096.13086915,-0.00427000,-0.00305000,1.02443400,-0.05328339,0.02161854,-0.03069500,0.55622000,0.11690000,0.18591055,-1.56971646,-0.11970184
1603783096.19352412,-0.00695400,-0.00378200,1.02650800,-0.09379176,0.18451692,0.38930500,-0.10878000,-0.37310000,0.18591055,-1.57190880,-0.12394037
1603783096.25596976,-0.00256200,-0.00219600,1.01796800,0.00056577,0.01639952,-0.03069500,0.13622000,-0.19810000,0.18357205,-1.57190880,-0.12394037
1603783096.31872129,-0.00549000,0.03037800,1.02528800,0.33546208,-0.06040852,0.10930500,-0.66878000,-0.51310000,0.18751827,-1.57015493,-0.11575563
1603783096.38113332,-0.00353800,-0.00195200,1.03748800,-0.20607966,0.38215047,0.10930500,0.69622000,0.22190000,0.18751827,-1.57015493,-0.11575563
1603783096.44365621,-0.00402600,-0.00158600,1.02541000,0.24753146,-0.25822943,-0.03069500,0.27622000,-0.19810000,0.18298743,-1.57380883,-0.12072493
1603783096.50606966,-0.00512400,-0.00073200,1.02467800,-0.19652151,0.30811301,0.17930500,0.13622000,-0.05810000,0.18269512,-1.57147033,-0.12247881
1603783096.56941175,-0.00439200,-0.00158600,1.02223800,-0.11505363,-0.09415501,-0.03069500,0.27622000,0.04690000,0.18269512,-1.57147033,-0.12247881
1603783096.63183284,-0.00463600,-0.00134200,1.02492200,-0.16623862,0.01886700,0.14430500,0.10122000,0.01190000,0.18781058,-1.57322420,-0.11560947
1603783096.69469476,-0.00524600,-0.00231800,1.02516600,0.16498418,-1.68883036,0.07430500,0.24122000,-0.12810000,0.18035662,-1.57117802,-0.12028647
1603783096.75718951,-0.00524600,-0.00122000,1.02516600,-0.01960698,0.05668131,0.21430500,-0.03878000,-0.09310000,0.18035662,-1.57117802,-0.12028647
1603783096.81967735,-0.00475800,-0.00158600,1.02577600,1.79365010,0.03134036,-0.27569500,0.83622000,0.15190000,0.17831044,-1.57410114,-0.11575563
1603783096.88200998,-0.00219600,-0.00122000,1.02345800,0.04899992,-0.11472895,0.00430500,0.38122000,0.15190000,0.17831044,-1.57410114,-0.12247881
1603783096.94445348,-0.00500200,-0.00463600,1.02101800,-0.14285224,0.02933046,0.17930500,-0.07378000,-0.23310000,0.18781058,-1.57541654,-0.12247881
1603783097.00684094,-0.00707600,-0.00268400,1.02894800,-0.05253291,0.14955151,0.00430500,0.97622000,0.18690000,0.17918737,-1.57629348,-0.12218650
1603783097.06930971,-0.00439200,-0.00097600,1.02504400,0.01501000,0.01464582,-0.06569500,0.13622000,-0.12810000,0.17918737,-1.57629348,-0.12218650
1603783097.13174438,-0.00475800,-0.00195200,1.02516600,0.17938856,-0.03069886,0.17930500,0.13622000,-0.05810000,0.18225665,-1.57410114,-0.11604794
1603783097.19443178,-0.00414800,-0.00134200,1.02443400,0.16542816,0.05798898,0.03930500,0.34622000,-0.05810000,0.17874890,-1.57278574,-0.11984800
1603783097.25674915,-0.00597800,-0.00305000,1.02785000,-0.18022894,0.09367133,0.28430500,-0.10878000,-0.09310000,0.17874890,-1.57278574,-0.11984800
1603783097.31928301,-0.00683200,-0.00207400,1.02638600,0.31488842,0.14388880,-0.06569500,0.62622000,0.01190000,0.17641041,-1.57161649,-0.12277112
1603783097.38162947,-0.00573400,-0.00329400,1.02528800,-0.06732459,0.08371562,0.03930500,0.27622000,-0.02310000,0.18342590,-1.57366267,-0.11794797
1603783097.44406867,-0.00646600,-0.00207400,1.02565400,0.00160683,0.12302139,-0.24069500,0.97622000,0.08190000,0.18342590,-1.57366267,-0.11794797
1603783097.50662112,-0.00256200,-0.00402600,1.02016400,-0.10881338,-0.12118472,0.31930500,0.06622000,-0.33810000,0.17509500,-1.57337036,-0.12130956
1603783097.56910443,-0.00976000,-0.00439200,1.02992400,-0.12701967,0.33241692,0.38930500,-0.42378000,-0.30310000,0.17509500,-1.57337036,-0.12130956
1603783097.63200235,-0.00097600,-0.00439200,1.02809400,-0.12746431,0.01389541,-0.03069500,0.13622000,-0.05810000,0.18664133,-1.57117802,-0.12262496
1603783097.69473290,-0.00549000,-0.00402600,1.02114000,-0.17703341,0.37154094,0.07430500,1.15122000,0.25690000,0.18474130,-1.56986261,-0.12817890
1603783097.75735092,-0.00146400,-0.00244000,1.01882200,-0.01992005,-0.13475252,0.10930500,-0.31878000,-0.12810000,0.18474130,-1.56986261,-0.12817890
1603783097.81984401,-0.00329400,-0.00329400,1.02419000,-0.01185270,-0.10171776,0.38930500,0.06622000,-0.23310000,0.17991815,-1.57234727,-0.12744811
1603783097.88223982,-0.00475800,-0.00207400,1.02370200,-0.06767627,0.15968923,0.28430500,-0.17878000,-0.12810000,0.18094125,-1.57220111,-0.12320959
1603783097.94476700,-0.00488000,-0.00219600,1.02467800,-0.08667130,-0.01329953,-0.06569500,0.52122000,0.04690000,0.18094125,-1.57220111,-0.12320959
1603783098.00730777,-0.00695400,-0.00170800,1.02467800,-0.06622813,0.14978091,-0.10069500,0.52122000,-0.02310000,0.18444899,-1.57103186,-0.12364806
1603783098.06973791,-0.00329400,-0.00170800,1.02443400,0.02116517,-0.05226623,0.07430500,0.31122000,-0.16310000,0.18430284,-1.57395498,-0.12774043
1603783098.13219738,-0.00463600,-0.00207400,1.02480000,0.00112275,0.02202119,-0.06569500,0.45122000,0.11690000,0.18430284,-1.57395498,-0.12774043
1603783098.19500589,-0.00585600,-0.00183000,1.02626400,0.01422557,0.09216846,-0.38069500,0.87122000,0.32690000,0.18649518,-1.57161649,-0.12832505
1603783098.25737095,-0.00524600,-0.00329400,1.02650800,-0.06655572,0.13004387,0.24930500,0.03122000,-0.23310000,0.18649518,-1.57161649,-0.12832505
1603783098.31984758,-0.00451400,-0.00292800,1.02248200,-0.04677012,0.17934434,0.10930500,0.24122000,-0.05810000,0.17772581,-1.57161649,-0.12160187
1603783098.38218284,-0.00536800,-0.00207400,1.02650800,0.08325113,0.09599910,0.10930500,-0.07378000,-0.26810000,0.17436422,-1.57804735,-0.12584040
1603783098.44470620,-0.00585600,-0.00183000,1.05664200,-0.01140976,-0.08186161,0.28430500,0.03122000,-0.33810000,0.17436422,-1.57804735,-0.12584040
1603783098.50718427,-0.00451400,-0.00085400,1.02406800,0.08996923,-0.13518176,0.03930500,0.34622000,-0.23310000,0.18956445,-1.57030108,-0.12145571
1603783098.56968999,-0.00561200,-0.00439200,1.02406800,-0.00618263,-0.00442386,0.14430500,0.06622000,0.01190000,0.18123356,-1.57044724,-0.12686349
1603783098.63216352,-0.00451400,-0.00207400,1.02370200,-0.12274476,0.01609370,0.31930500,-0.07378000,-0.23310000,0.18123356,-1.57044724,-0.12686349
1603783098.69485378,-0.00500200,-0.00231800,1.02541000,-0.01217409,0.04172262,-0.31069500,0.55622000,0.04690000,0.17991815,-1.57351652,-0.13183280
1603783098.75725985,-0.00414800,-0.00134200,1.02504400,1.80277760,-0.00379619,0.35430500,-0.24878000,-0.19810000,0.18561824,-1.57205495,-0.12657118
1603783098.81981635,-0.00646600,-0.00390400,1.02419000,-0.10003442,0.12229271,0.28430500,-0.10878000,-0.09310000,0.18561824,-1.57205495,-0.12657118
1603783098.88218951,-0.00366000,-0.00475800,1.02150600,-0.14956738,0.15236992,-0.10069500,0.38122000,0.15190000,0.17845659,-1.57161649,-0.12335574
1603783098.94467068,-0.00512400,-0.00610000,1.03248600,-0.22119633,0.17529845,0.00430500,0.41622000,-0.12810000,0.17845659,-1.57161649,-0.12335574
1603783099.00714564,-0.00463600,-0.00183000,1.02028600,0.09674532,0.00897185,0.10930500,0.41622000,0.08190000,0.18971061,-1.57322420,-0.12744811
1603783099.06970644,-0.00353800,-0.00134200,1.01418600,-0.05500729,0.00356202,0.07430500,0.20622000,-0.16310000,0.18167203,-1.56737796,-0.12452499
1603783099.13236618,-0.00488000,-0.00061000,1.02736200,0.06954634,-0.14898384,-0.03069500,0.52122000,0.32690000,0.18167203,-1.56737796,-0.12452499
1603783099.19512582,-0.00549000,-0.00195200,1.02321400,-0.15452800,0.12250471,0.17930500,-0.14378000,-0.44310000,0.18269512,-1.57161649,-0.12759427
1603783099.25760627,-0.00524600,-0.00109800,1.02541000,-0.20221294,0.04105600,0.21430500,0.20622000,0.01190000,0.19000292,-1.57278574,-0.12306343
1603783099.32015443,-0.00561200,-0.00183000,1.02589800,-0.08062248,0.07627812,-0.17069500,0.76622000,0.22190000,0.19000292,-1.57278574,-0.12306343
1603783099.38251495,-0.00341600,-0.00207400,1.02480000,-0.24087804,-0.04844192,0.24930500,-0.03878000,-0.19810000,0.18196434,-1.57483192,-0.12700965
1603783099.44503093,-0.00402600,-0.00158600,1.02577600,0.02883777,-0.01311185,0.35430500,-0.10878000,-0.40810000,0.18985677,-1.57337036,-0.11911722
1603783099.50750685,-0.00549000,-0.00207400,1.02577600,0.00145484,0.06897974,0.03930500,0.31122000,-0.02310000,0.18985677,-1.57337036,-0.11911722
1603783099.56990647,-0.00488000,-0.00366000,1.02443400,-0.08739926,0.03526438,0.07430500,-0.00378000,0.08190000,0.18707980,-1.56270096,-0.12554809
1603783099.63250494,-0.00622200,-0.00048800,1.02907000,0.09012823,0.02724406,0.14430500,0.34622000,0.01190000,0.18707980,-1.56270096,-0.12554809
1603783099.69534779,-0.00536800,-0.00195200,1.02150600,0.07624092,-0.22398050,0.03930500,0.48622000,-0.05810000,0.18444899,-1.57395498,-0.12817890
1603783099.75776243,-0.00512400,-0.00268400,1.02858200,-0.02541346,-0.07456698,0.03930500,0.76622000,0.08190000,0.18941830,-1.56708565,-0.12189418
1603783099.82026863,-0.00512400,-0.00146400,1.02297000,0.23400366,-0.05231079,0.00430500,0.41622000,-0.23310000,0.18941830,-1.56708565,-0.12189418
1603783099.88267803,-0.00536800,-0.00073200,1.02504400,-0.04698692,0.11828706,0.00430500,0.24122000,-0.23310000,0.17947968,-1.56840105,-0.11984800
1603783099.94511271,-0.00646600,-0.00366000,1.02297000,0.04877242,0.12552389,0.07430500,0.17122000,0.04690000,0.18006431,-1.57147033,-0.12028647
1603783100.00755048,-0.00341600,-0.00195200,1.02382400,0.09676243,-0.04599660,0.14430500,0.13622000,-0.26810000,0.18006431,-1.57147033,-0.12028647
1603783100.06996584,-0.00414800,-0.00085400,1.02480000,0.06937550,-0.00489718,0.03930500,0.13622000,0.01190000,0.18386437,-1.57000877,-0.12072493
1603783100.13248610,-0.00561200,-0.00146400,1.02614200,0.03555565,0.07568248,0.31930500,-0.17878000,-0.33810000,0.18225665,-1.57059339,-0.11663256
1603783100.19512820,-0.00585600,-0.00231800,1.02284800,-0.00869746,0.04748322,0.84430500,-0.94878000,-0.40810000,0.18225665,-1.57059339,-0.11663256
1603783100.25765467,-0.00402600,-0.00439200,1.02650800,-0.12784085,0.08918681,-0.03069500,0.13622000,0.01190000,0.18459515,-1.57965507,-0.11531716
1603783100.32013535,-0.00439200,-0.00073200,1.03029000,-0.16764262,0.21688537,0.17930500,0.38122000,0.08190000,0.18459515,-1.57965507,-0.11531716
1603783100.38259721,-0.00414800,-0.00085400,1.01748000,0.14477842,-0.20331636,0.07430500,0.38122000,0.04690000,0.18722596,-1.57293189,-0.12174803
1603783100.44502282,-0.00463600,-0.00134200,1.02455600,-0.08149835,0.09137777,0.10930500,0.13622000,0.04690000,0.18342590,-1.57322420,-0.12335574
1603783100.50739598,-0.00597800,-0.00109800,1.02589800,0.06223337,0.01701037,0.14430500,0.06622000,-0.09310000,0.18342590,-1.57322420,-0.12335574
1603783100.56985307,-0.00463600,-0.00085400,1.02541000,-0.02686600,0.02320326,-0.06569500,0.45122000,0.04690000,0.18181818,-1.57234727,-0.11663256
1603783100.63262892,-0.00597800,-0.00292800,1.02480000,-0.00450447,0.09390984,0.17930500,-0.03878000,-0.16310000,0.18620286,-1.57439345,-0.12204034
1603783100.69548178,-0.00597800,-0.00183000,1.02333600,0.31510114,0.09655326,-0.06569500,0.31122000,0.04690000,0.18620286,-1.57439345,-0.12204034
1603783100.75785828,-0.00585600,-0.00366000,1.02394600,-0.08845182,0.09153517,0.21430500,0.13622000,-0.19810000,0.18021046,-1.57950892,-0.12101725
1603783100.82040429,-0.00536800,-0.00134200,1.02443400,0.04290694,0.05990088,0.14430500,0.13622000,-0.09310000,0.18620286,-1.57263958,-0.12218650
1603783100.88287520,-0.00402600,-0.00097600,1.02626400,0.06280938,0.00753510,0.00430500,0.34622000,-0.02310000,0.18620286,-1.57263958,-0.12218650
1603783100.94546175,-0.00658800,-0.00402600,1.02248200,-0.10829917,0.00844026,0.38930500,-0.21378000,-0.26810000,0.18211049,-1.57176264,-0.11911722
1603783101.00794053,-0.00305000,-0.00219600,1.02638600,-0.20278221,0.05517315,0.07430500,0.90622000,0.29190000,0.18211049,-1.57176264,-0.11911722
1603783101.07031488,-0.00427000,-0.00158600,1.01650400,0.32359514,-0.15514781,0.00430500,0.10122000,-0.16310000,0.18532593,-1.57059339,-0.11663256
1603783101.13284779,-0.00390400,-0.00085400,1.02370200,-0.16121303,0.39408948,0.21430500,0.10122000,-0.37310000,0.19058755,-1.57322420,-0.11502485
1603783101.19535780,-0.00622200,-0.00402600,1.02443400,0.04197282,-0.03908028,-0.17069500,0.31122000,-0.02310000,0.19058755,-1.57322420,-0.11502485
1603783101.25775766,-0.00536800,-0.00146400,1.02297000,-0.11372854,0.06131029,0.14430500,0.17122000,-0.12810000,0.18050278,-1.57848582,-0.11984800
1603783101.32014251,-0.00463600,-0.00134200,1.02528800,0.04186496,0.02292286,-0.13569500,0.41622000,0.22190000,0.18620286,-1.57234727,-0.11268635
1603783101.38248754,-0.00463600,-0.00183000,1.02419000,0.01476599,0.02208327,-0.10069500,0.45122000,0.15190000,0.18620286,-1.57234727,-0.11268635
1603783101.44499612,-0.00427000,-0.00048800,1.02675200,0.09006705,0.08911209,0.00430500,0.34622000,0.08190000,0.18386437,-1.56942414,-0.12043262
1603783101.50741482,-0.00512400,-0.00463600,1.02419000,-0.14204580,0.06262733,0.38930500,-0.59878000,-0.09310000,0.18386437,-1.56942414,-0.11648641
1603783101.57011342,-0.00353800,-0.00170800,1.02236000,0.02157903,0.07000451,0.07430500,0.27622000,-0.37310000,0.18152587,-1.57000877,-0.11648641
1603783101.63252234,-0.00512400,-0.00146400,1.02846000,-0.28368522,0.21089257,0.07430500,-0.07378000,-0.12810000,0.19204911,-1.57380883,-0.11853259
1603783101.69547915,-0.00427000,-0.00073200,1.03187600,0.00891595,0.24328631,0.07430500,0.59122000,-0.12810000,0.19204911,-1.57380883,-0.11853259
1603783101.75781894,-0.00524600,-0.00219600,1.05444600,0.17155571,-0.14271608,0.10930500,0.13622000,0.01190000,0.17743350,-1.57103186,-0.12744811
1603783101.82034540,-0.00366000,-0.00195200,1.02297000,0.02108415,-0.12083468,0.03930500,0.55622000,0.01190000,0.18064893,-1.57132417,-0.11502485
1603783101.88254499,-0.00451400,-0.00231800,1.02480000,-0.16859672,0.01419344,-0.20569500,0.59122000,0.18690000,0.18064893,-1.57132417,-0.11502485
1603783101.94489360,-0.00414800,-0.00170800,1.02724000,0.02084179,-0.00341395,0.03930500,0.38122000,-0.05810000,0.18474130,-1.56620871,-0.12584040
1603783102.00729513,-0.00561200,-0.00317200,1.02370200,-0.06042324,0.07676539,0.00430500,0.34622000,-0.12810000,0.17728734,-1.57176264,-0.12320959
1603783102.06968546,-0.00500200,-0.00085400,1.02382400,0.06957526,0.04185621,-0.03069500,0.24122000,-0.12810000,0.17728734,-1.57176264,-0.12320959
1603783102.13283038,-0.00402600,-0.00292800,1.02516600,-0.04634223,0.08961633,-0.03069500,0.45122000,0.22190000,0.18503362,-1.56708565,-0.11502485
1603783102.19580507,-0.00488000,-0.00122000,1.02333600,0.04899331,0.16533710,-0.03069500,0.45122000,0.01190000,0.18503362,-1.56708565,-0.11502485
1603783102.25820327,-0.00512400,-0.00414800,1.02553200,-0.11444376,0.02815582,-0.13569500,0.38122000,0.11690000,0.18342590,-1.57205495,-0.11677872
1603783102.32069683,-0.00512400,-0.00097600,1.02345800,0.04217027,-0.06009044,0.07430500,-0.14378000,-0.37310000,0.17831044,-1.57453961,-0.11692488
1603783102.38299894,-0.00475800,-0.00231800,1.05542200,0.13763291,-0.21733186,-0.06569500,0.38122000,-0.05810000,0.17831044,-1.57453961,-0.11692488
1603783102.44539571,-0.00524600,-0.00207400,1.02309200,-0.13381537,0.05416896,0.24930500,0.06622000,-0.05810000,0.18664133,-1.57307805,-0.12715580
1603783102.50777888,-0.00451400,-0.00085400,1.02528800,0.09013465,0.01359952,0.07430500,0.31122000,0.15190000,0.18401052,-1.57337036,-0.11926337
1603783102.57006574,-0.00488000,-0.00183000,1.02492200,0.00200298,0.03361792,0.10930500,0.20622000,0.08190000,0.18401052,-1.57337036,-0.11926337
1603783102.63253045,-0.00463600,-0.00170800,1.02443400,0.02160147,0.02208332,0.17930500,-0.07378000,-0.16310000,0.18006431,-1.57132417,-0.11867875
1603783102.69529080,-0.00585600,-0.00329400,1.02504400,-0.06653467,0.08914928,0.17930500,-0.00378000,-0.12810000,0.18664133,-1.57395498,-0.11926337
1603783102.75786042,-0.00378200,-0.00219600,1.02626400,-0.00530207,-0.02652071,-0.27569500,0.87122000,0.15190000,0.18664133,-1.57395498,-0.11926337
1603783102.82034707,-0.00207400,-0.00427000,1.02004200,-0.12254490,-0.05264456,0.10930500,0.13622000,-0.16310000,0.18342590,-1.57337036,-0.12496346
1603783102.88271832,-0.00573400,-0.00219600,1.03114400,-0.20807251,0.32496028,0.03930500,0.62622000,0.01190000,0.18342590,-1.57337036,-0.12496346
1603783102.94523478,-0.00451400,-0.00134200,1.03700000,-0.21298157,0.20046204,0.17930500,0.31122000,0.04690000,0.18664133,-1.57527039,-0.12350190
1603783103.00770164,-0.00451400,-0.00305000,1.05713000,-0.12620908,0.39816997,0.24930500,-0.03878000,0.01190000,0.18795674,-1.56913183,-0.11984800
1603783103.06997943,-0.00707600,-0.00109800,1.02528800,0.00741002,0.31178384,0.21430500,-0.28378000,-0.16310000,0.18795674,-1.56913183,-0.11984800
1603783103.13247752,-0.00085400,-0.00512400,1.01077000,-0.15089573,-1.95023164,0.21430500,-0.35378000,-0.12810000,0.18254896,-1.57190880,-0.11940953
1603783103.19531751,-0.01525000,-0.00585600,1.03590200,-0.13402922,0.61144194,-0.10069500,-0.28378000,-0.12810000,0.18605671,-1.56927799,-0.11677872
1603783103.25766397,0.00451400,0.00866200,1.03968400,0.60698917,-0.49285502,-0.06569500,1.25622000,0.11690000,0.18605671,-1.56927799,-0.11677872
1603783103.32013512,-0.00329400,-0.00536800,1.02724000,-0.18665349,-0.05115093,0.14430500,0.76622000,0.29190000,0.18386437,-1.56445484,-0.11970184
1603783103.38253140,-0.00610000,0.00073200,1.02114000,0.15837018,0.04299167,0.24930500,-0.10878000,-0.19810000,0.17904122,-1.57322420,-0.12744811
1603783103.44502306,0.00231800,-0.00439200,1.02211600,-0.12889525,-0.51805384,-0.06569500,0.94122000,-0.19810000,0.17904122,-1.57322420,-0.12744811
1603783103.50752211,-0.01634800,-0.00048800,1.03724400,0.05665567,0.75288127,0.21430500,0.59122000,0.01190000,0.18459515,-1.56810874,-0.12218650
1603783103.56997514,0.00231800,-0.00414800,1.02150600,0.04202636,-0.27188091,-0.45069500,0.90622000,0.50190000,0.18459515,-1.56810874,-0.12218650
1603783103.63321805,-0.00866200,-0.00195200,1.02663000,-0.01205861,0.44998442,0.03930500,0.13622000,0.11690000,0.17772581,-1.57059339,-0.12364806
1603783103.69621873,0.00353800,0.00012200,1.01772400,0.43322947,-0.69096112,0.00430500,-0.07378000,-0.26810000,0.18634902,-1.57161649,-0.12145571
1603783103.75868917,-0.00890600,-0.00414800,1.03004600,-0.07995496,0.40852101,-0.10069500,0.48622000,0.15190000,0.18634902,-1.57161649,-0.12145571
1603783103.82115626,-0.00475800,0.00158600,1.02650800,0.16487446,0.03419762,0.03930500,0.20622000,0.01190000,0.18591055,-1.56767027,-0.12233265
1603783103.88351846,-0.00549000,-0.00329400,1.02431200,-0.10003562,0.06796039,0.24930500,0.13622000,-0.05810000,0.18035662,-1.57322420,-0.11546331
1603783103.94604182,-0.00573400,-0.00219600,1.02467800,0.22637947,0.08276068,-0.03069500,0.45122000,0.08190000,0.18035662,-1.57322420,-0.11546331
1603783104.00867367,-0.00219600,-0.00195200,1.02577600,0.00778592,-0.11446474,0.38930500,-0.24878000,-0.26810000,0.19102602,-1.56840105,-0.12394037
1603783104.07103348,-0.00646600,-0.00366000,1.02675200,-0.08654789,0.12246377,-0.20569500,0.41622000,0.04690000,0.18576440,-1.57293189,-0.11824028
1603783104.13348389,-0.00097600,0.00024400,1.02345800,0.13095817,-0.22400660,0.35430500,0.10122000,-0.23310000,0.18576440,-1.57293189,-0.11824028
1603783104.19615006,-0.00902800,-0.00183000,1.01845600,0.01435009,0.18099378,-0.03069500,0.52122000,-0.26810000,0.18503362,-1.57453961,-0.12291728
1603783104.25849986,-0.00244000,-0.00231800,1.01711400,-0.06138057,0.17467272,0.07430500,0.31122000,0.15190000,0.18503362,-1.57453961,-0.12291728
1603783104.32110453,-0.00671000,-0.00427000,1.02260400,-0.04674345,0.43902123,0.03930500,1.04622000,-0.02310000,0.18254896,-1.56942414,-0.12130956
1603783104.38341069,-0.00610000,-0.00353800,1.05603200,-0.17338870,0.33695493,0.10930500,-0.00378000,0.08190000,0.18035662,-1.57337036,-0.12145571
1603783104.44588852,-0.00524600,-0.00207400,1.02504400,0.08325109,0.08238039,0.24930500,0.27622000,-0.12810000,0.18035662,-1.57337036,-0.12145571
1603783104.50837302,-0.00231800,-0.00317200,1.02394600,0.00747108,-0.10724632,0.10930500,0.13622000,0.01190000,0.18444899,-1.57380883,-0.11283251
1603783104.57072878,-0.00305000,-0.00195200,1.02309200,0.13087718,-0.06793174,0.31930500,0.03122000,-0.23310000,0.18167203,-1.57293189,-0.12496346
1603783104.63328886,-0.00561200,-0.00305000,1.02077400,-0.05401702,0.07755522,0.24930500,-0.03878000,-0.19810000,0.18167203,-1.57293189,-0.12496346
1603783104.69612861,0.00000000,-0.00561200,1.02162800,-0.19705980,-0.23766634,0.24930500,0.17122000,-0.19810000,0.17947968,-1.57395498,-0.11926337
1603783104.75857353,-0.00512400,-0.00024400,1.02358000,0.10364049,0.04915161,0.10930500,0.06622000,-0.05810000,0.18240281,-1.56781643,-0.12101725
1603783104.82107520,-0.00292800,-0.00427000,1.02589800,-0.12117557,-0.03326020,-0.06569500,0.62622000,0.04690000,0.18240281,-1.56781643,-0.12101725
1603783104.88351464,-0.00463600,0.00024400,1.02101800,0.13099050,0.15256055,0.14430500,-0.17878000,-0.19810000,0.18415668,-1.56971646,-0.12642502
1603783104.94604945,-0.00231800,-0.00439200,1.02821600,-0.09344662,-0.31924491,0.28430500,0.13622000,-0.23310000,0.18415668,-1.56971646,-0.12642502
1603783105.00848818,-0.00646600,-0.00244000,1.02577600,-0.22199285,0.28484644,0.17930500,-0.10878000,0.04690000,0.18444899,-1.57234727,-0.11911722
1603783105.07094240,0.00000000,-0.00439200,1.01601600,-0.06157801,-0.34086417,0.07430500,-0.03878000,0.25690000,0.18167203,-1.57220111,-0.12467115
1603783105.13459086,-0.00475800,-0.00122000,1.02638600,-0.10743744,0.17094677,0.21430500,-0.17878000,-0.12810000,0.18167203,-1.57220111,-0.12467115
1603783105.19727993,-0.00268400,-0.00268400,1.02785000,0.06969975,0.01392748,0.03930500,0.17122000,-0.16310000,0.17874890,-1.57351652,-0.12496346
1603783105.25991416,-0.00658800,-0.00207400,1.02797200,0.14469234,0.16639708,-0.03069500,0.45122000,0.39690000,0.18079509,-1.57278574,-0.12262496
1603783105.32249522,-0.00695400,-0.00158600,1.02772800,-0.10287827,0.16140619,0.17930500,0.17122000,-0.09310000,0.18079509,-1.57278574,-0.12262496
1603783105.38484812,-0.00256200,0.00170800,1.02223800,0.03512481,-0.09386239,0.31930500,-0.10878000,-0.26810000,0.17918737,-1.57585501,-0.12481730
1603783105.44744587,-0.00902800,-0.00024400,1.02785000,0.13765863,0.26455811,-0.24069500,0.45122000,0.01190000,0.18094125,-1.57410114,-0.12218650
1603783105.50984812,-0.00683200,0.00036600,1.02248200,0.13788328,0.14658700,-0.10069500,0.41622000,0.15190000,0.18094125,-1.57410114,-0.12218650
1603783105.57228017,-0.00561200,-0.00061000,1.02785000,0.08329552,0.07516205,-0.13569500,0.45122000,0.08190000,0.18620286,-1.57439345,-0.12247881
1603783105.63466954,-0.00597800,-0.00170800,1.02248200,0.02159078,0.10414860,0.21430500,-0.00378000,-0.47810000,0.18620286,-1.57439345,-0.12247881
1603783105.69711828,-0.00219600,-0.00341600,1.02309200,-0.14915683,0.03562117,0.14430500,0.10122000,-0.23310000,0.18430284,-1.57278574,-0.12247881
1603783105.75982094,-0.00549000,-0.00170800,1.02248200,0.26769782,-0.04624881,0.03930500,-0.35378000,-0.19810000,0.18313359,-1.57702426,-0.11955569
1603783105.82223344,-0.00439200,-0.00073200,1.02736200,0.21309909,-0.13502277,-0.06569500,0.34622000,-0.05810000,0.18313359,-1.57702426,-0.11955569
1603783105.88460112,-0.00610000,-0.00317200,1.02711800,-0.04547049,0.09465497,0.24930500,-0.03878000,-0.12810000,0.19000292,-1.57395498,-0.12452499
1603783105.94715118,-0.00353800,-0.00207400,1.02443400,0.23955019,-1.77958172,-0.03069500,0.34622000,0.08190000,0.18211049,-1.57176264,-0.12277112
1603783106.00971365,-0.00439200,-0.00268400,1.02419000,-0.18854523,0.00700817,0.10930500,0.17122000,-0.23310000,0.18211049,-1.57176264,-0.12277112
1603783106.07206273,-0.00512400,0.00024400,1.02724000,0.13101359,0.05035310,0.49430500,-0.31878000,-0.37310000,0.18664133,-1.57337036,-0.11882490
1603783106.13445425,-0.00317200,-0.00414800,1.02309200,-0.10811670,-0.06529024,0.14430500,-0.10878000,-0.05810000,0.22405729,-1.56942414,-0.11473253
1603783106.19693828,-0.00500200,-0.00097600,1.02492200,0.06273843,0.08969543,0.10930500,0.34622000,-0.02310000,0.18707980,-1.56942414,-0.11473253
1603783106.25947785,-0.00305000,-0.00109800,1.03041200,0.05624460,-0.11555861,0.14430500,0.34622000,-0.19810000,0.18050278,-1.56883952,-0.11940953
1603783106.32202911,-0.00329400,-0.00134200,1.02589800,0.02190815,-0.07413999,0.10930500,-0.35378000,-0.30310000,0.18050278,-1.56883952,-0.11940953
1603783106.38448620,-0.00488000,-0.00183000,1.02565400,0.04914638,-0.04684027,0.14430500,0.06622000,-0.16310000,0.18766443,-1.56913183,-0.11677872
1603783106.44710588,-0.00414800,-0.00305000,1.05517800,-0.22766660,0.42521844,0.31930500,0.20622000,0.01190000,0.18064893,-1.57234727,-0.11385560
1603783106.50974321,-0.00488000,-0.00219600,1.02626400,0.10365821,-0.18992555,0.03930500,0.45122000,-0.05810000,0.18064893,-1.57234727,-0.11385560
1603783106.57282591,-0.00329400,-0.00146400,1.02711800,0.06225931,-0.17574732,0.00430500,0.27622000,-0.61810000,0.17670272,-1.57907045,-0.11385560
1603783106.63553882,-0.00366000,-0.00231800,1.02284800,-0.07295668,0.19041087,-0.03069500,0.52122000,0.32690000,0.18444899,-1.57161649,-0.11897106
1603783106.69822502,-0.00512400,-0.00280600,1.02406800,-0.01203206,0.27285508,0.31930500,-0.03878000,-0.23310000,0.18444899,-1.57161649,-0.11897106
1603783106.76068115,-0.00317200,-0.00244000,1.02455600,-0.11987854,-0.06147795,0.14430500,0.06622000,-0.12810000,0.18254896,-1.57117802,-0.12291728
1603783106.82321143,-0.01122400,-0.00817400,1.02016400,-0.50450684,0.40509953,0.35430500,0.13622000,-0.30310000,0.18254896,-1.57892429,-0.12130956
1603783106.88569283,-0.00427000,-0.00524600,0.98783400,-0.18362661,0.00727227,0.63430500,-0.14378000,-0.05810000,0.18240281,-1.57892429,-0.12130956
1603783106.94813752,0.00573400,-0.00756400,1.02333600,-0.30618963,-0.55869637,0.07430500,0.20622000,-0.02310000,0.17904122,-1.57307805,-0.11940953
1603783107.01061153,0.03111000,-0.00061000,1.04627200,0.08389374,-0.31115667,-0.13569500,0.55622000,-0.12810000,0.17904122,-1.57307805,-0.11940953
1603783107.07298326,0.00646600,0.00671000,1.04017200,0.35248117,-0.99027063,-0.10069500,0.27622000,-0.12810000,0.18137971,-1.57249342,-0.11502485
1603783107.13553977,-0.00829600,-0.00671000,1.01784600,-0.48701315,0.06448525,0.31930500,-0.63378000,-0.16310000,0.18503362,-1.57395498,-0.11546331
1603783107.19790387,-0.00463600,-0.00390400,1.04249000,0.03786078,0.15290505,-0.27569500,-0.21378000,-0.61810000,0.18503362,-1.57395498,-0.11546331
1603783107.26025939,0.00024400,-0.01037000,1.00369400,-0.08609033,-0.56308943,-0.20569500,0.10122000,-0.37310000,0.18371821,-1.57132417,-0.12350190
1603783107.32273507,-0.00390400,-0.00170800,1.02919200,-0.24686217,-0.02186841,0.21430500,-0.14378000,-0.30310000,0.17889506,-1.56971646,-0.11984800
1603783107.38514066,-0.00829600,-0.00427000,1.01748000,-0.09887859,0.22171366,0.14430500,0.20622000,-0.19810000,0.17889506,-1.56971646,-0.11984800
1603783107.44754601,-0.00122000,-0.00634400,1.01674800,-0.23980810,-0.16899243,0.59930500,-0.49378000,-0.51310000,0.18181818,-1.56869336,-0.11502485
1603783107.51009893,-0.00244000,-0.00244000,1.02565400,-0.01900586,-0.10136205,0.45930500,-0.24878000,-0.33810000,0.18181818,-1.56869336,-0.11502485
1603783107.57254219,-0.00378200,-0.00488000,1.02101800,-0.15654629,-0.09389825,0.28430500,-0.10878000,-0.16310000,0.18430284,-1.56883952,-0.11838644
1603783107.63500929,-0.00414800,-0.00097600,1.03236400,0.06313115,-0.04808051,-0.03069500,0.80122000,0.32690000,0.18123356,-1.57380883,-0.11926337
1603783107.69736671,-0.00866200,-0.00146400,1.03602400,-0.14581878,0.37628343,-0.03069500,0.94122000,0.15190000,0.18123356,-1.57380883,-0.11926337
1603783107.75981402,-0.00414800,0.00146400,1.00235200,0.04854923,-0.37516485,-0.06569500,0.38122000,-0.19810000,0.18152587,-1.57176264,-0.11824028
1603783107.82244492,-0.00549000,-0.00061000,1.02968000,0.19949107,0.02946061,-0.13569500,0.66122000,0.18690000,0.17524116,-1.57030108,-0.11955569
1603783107.88491869,-0.00390400,0.00000000,1.02480000,0.11729844,-0.04749612,0.38930500,-0.21378000,-0.30310000,0.17524116,-1.57030108,-0.11955569
1603783107.94736004,-0.00658800,-0.00244000,1.02577600,0.05533605,0.13411050,-0.06569500,0.41622000,0.04690000,0.18517977,-1.57614733,-0.11341713
1603783108.00988007,-0.00475800,-0.00134200,1.02358000,0.04266005,0.02696152,0.07430500,0.31122000,-0.02310000,0.18854136,-1.57424730,-0.11736334
1603783108.07230759,-0.00329400,-0.00280600,1.02419000,1.70918920,-0.05322172,-0.17069500,0.62622000,0.18690000,0.18854136,-1.57424730,-0.11736334
1603783108.13512659,-0.00451400,-0.00183000,1.02528800,0.01402671,0.01707128,0.28430500,0.03122000,-0.33810000,0.17451038,-1.57936276,-0.11911722
1603783108.19759178,-0.00451400,-0.00134200,1.02406800,0.04221535,0.00806081,0.63430500,-0.38878000,-0.61810000,0.17451038,-1.57936276,-0.11911722
1603783108.26018023,-0.00439200,-0.00366000,1.02541000,-0.08720342,0.08953771,0.38930500,-0.38878000,-0.02310000,0.18693365,-1.56942414,-0.11400175
1603783108.32280087,-0.00427000,-0.00244000,1.01784600,-0.09558644,0.24304597,0.10930500,-0.21378000,-0.33810000,0.18035662,-1.56986261,-0.11955569
1603783108.38533068,-0.00573400,-0.00366000,1.02345800,-0.07393199,0.18577553,0.21430500,-0.28378000,-0.26810000,0.18035662,-1.56986261,-0.11955569
1603783108.44778204,-0.00561200,-0.00195200,1.02480000,0.18544264,-0.12863557,-0.03069500,0.52122000,-0.26810000,0.18152587,-1.57614733,-0.11648641
1603783108.51033568,-0.00414800,-0.00134200,1.02370200,-0.03932133,-0.16957086,-0.10069500,0.38122000,0.18690000,0.18634902,-1.57556270,-0.12204034
1603783108.57276559,-0.00536800,-0.00353800,1.02528800,-0.15599004,-0.01903586,0.10930500,0.17122000,-0.16310000,0.18634902,-1.57556270,-0.12204034
1603783108.63531232,-0.00451400,-0.00085400,1.02480000,0.08308825,0.01548982,0.14430500,0.13622000,-0.26810000,0.18547208,-1.57468576,-0.12014031
1603783108.69768715,-0.00463600,-0.00061000,1.02431200,0.08323066,0.02124963,0.00430500,0.52122000,0.08190000,0.19161064,-1.57147033,-0.12379421
1603783108.76017547,-0.00305000,-0.00244000,1.02419000,-0.01885988,-0.06746836,0.49430500,-0.24878000,-0.16310000,0.19161064,-1.57147033,-0.12379421
1603783108.82267475,-0.00378200,-0.00024400,1.02333600,0.10363716,-0.02591610,0.03930500,0.52122000,-0.09310000,0.18547208,-1.57307805,-0.11341713
1603783108.88512492,-0.00597800,-0.00146400,1.02772800,0.03568159,0.04799372,0.03930500,0.27622000,0.04690000,0.18547208,-1.57307805,-0.11341713
1603783108.94755554,-0.00402600,-0.00122000,1.02504400,-0.16228338,0.17829885,0.17930500,-0.21378000,-0.12810000,0.18430284,-1.57863198,-0.11780181
1603783109.01009679,-0.00573400,-0.00329400,1.02223800,-0.08783810,0.08371523,0.14430500,0.48622000,0.25690000,0.18781058,-1.56840105,-0.11444022
1603783109.07264328,-0.00329400,-0.00268400,1.02236000,-0.12204687,0.35044789,0.17930500,0.13622000,0.18690000,0.18781058,-1.56840105,-0.11444022
1603783109.13515973,-0.00512400,-0.00109800,1.02553200,0.10368772,0.17065870,0.24930500,-0.07378000,-0.33810000,0.17889506,-1.57468576,-0.11750950
1603783109.19754052,-0.00475800,-0.00305000,1.02553200,0.08320924,-1.71730185,-0.20569500,0.66122000,0.15190000,0.17947968,-1.57000877,-0.11254019
1603783109.26000977,-0.00500200,-0.00244000,1.02614200,0.28824641,0.04268904,-0.03069500,0.38122000,-0.05810000,0.17947968,-1.57000877,-0.11254019
1603783109.32262802,-0.00549000,-0.00207400,1.02589800,0.00182563,0.06799820,-0.03069500,0.38122000,0.01190000,0.18240281,-1.56883952,-0.11677872
1603783109.38511753,-0.00439200,-0.00231800,1.02370200,-0.01243675,0.00814824,0.10930500,-0.07378000,-0.16310000,0.18342590,-1.57804735,-0.11400175
1603783109.44754171,-0.00475800,-0.00183000,1.02675200,0.01518010,0.00741829,-0.76569500,1.36122000,0.39690000,0.18342590,-1.57804735,-0.11400175
1603783109.51011539,-0.00329400,-0.00378200,1.02284800,-0.09455139,-0.02581651,0.52930500,-0.52878000,-0.44310000,0.18181818,-1.57570886,-0.12043262
1603783109.57260180,-0.00488000,0.00012200,1.02833800,-1.62669098,-0.23766634,0.00430500,0.45122000,-0.02310000,0.18181818,-1.57570886,-0.12043262
1603783109.63700962,-0.00646600,-0.00463600,1.02333600,-0.13947507,0.12046626,0.38930500,-0.17878000,-0.26810000,0.19219526,-1.57746273,-0.11984800
1603783109.69964576,-0.00597800,-0.00329400,1.02455600,-0.06690666,0.09663312,0.38930500,-0.10878000,-0.16310000,0.18532593,-1.57702426,-0.11794797
1603783109.76210546,-0.00439200,-0.00097600,1.02480000,0.06273128,-0.06714377,0.00430500,0.31122000,-0.19810000,0.18532593,-1.57702426,-0.11794797
1603783109.82458568,-0.00451400,-0.00024400,1.02663000,0.10368090,-0.23085757,0.07430500,-0.66878000,-0.47810000,0.18386437,-1.57585501,-0.11794797
1603783109.88695264,-0.00488000,-0.00109800,1.02736200,-0.10042169,0.11613026,0.03930500,0.34622000,0.39690000,0.18488746,-1.57249342,-0.12014031
1603783109.94948316,-0.00414800,-0.00195200,1.02345800,-0.14100266,-0.11531351,-0.03069500,0.34622000,0.08190000,0.18488746,-1.57249342,-0.12014031
1603783110.01201677,-0.00524600,-0.00207400,1.02492200,0.13795298,-0.14127844,0.00430500,0.34622000,0.15190000,0.18284127,-1.57132417,-0.12350190
1603783110.07444739,-0.00439200,-0.00231800,1.02370200,-0.07996590,-0.00639074,0.00430500,0.13622000,-0.09310000,0.19000292,-1.57000877,-0.11765566
1603783110.13703561,-0.00488000,-0.00292800,1.02419000,-0.16660627,0.03271899,0.17930500,-0.00378000,-0.16310000,0.19000292,-1.57000877,-0.11765566
1603783110.19958186,-0.00366000,-0.00268400,1.02419000,0.00808644,-0.03289353,-0.31069500,0.66122000,0.15190000,0.18547208,-1.57044724,-0.11707103
1603783110.26202416,-0.00488000,-0.00158600,1.02272600,0.02863803,0.03513584,-0.03069500,0.66122000,0.08190000,0.18547208,-1.57044724,-0.11707103
1603783110.32449579,-0.00402600,-0.00219600,1.02333600,-0.00565274,-0.01225544,0.31930500,-0.10878000,-0.30310000,0.18781058,-1.57731657,-0.11897106
1603783110.38697791,-0.00451400,-0.00134200,1.02419000,0.04222429,0.00803153,0.07430500,0.45122000,0.08190000,0.18444899,-1.57176264,-0.11940953
1603783110.44949222,-0.00536800,-0.00427000,1.03102200,-0.11998258,0.27079820,0.03930500,-0.17878000,-0.12810000,0.18444899,-1.57176264,-0.11940953
1603783110.51190209,-0.00488000,-0.00109800,1.02065200,0.08990394,-0.09384507,0.14430500,0.06622000,-0.30310000,0.18649518,-1.57103186,-0.11078632
1603783110.57435727,-0.00512400,-0.00305000,1.05639800,-0.04516498,-0.08874157,0.24930500,0.03122000,-0.19810000,0.18517977,-1.57205495,-0.12101725
1603783110.63684440,-0.00463600,-0.00170800,1.02553200,0.17179974,0.14384553,0.24930500,0.06622000,0.08190000,0.18517977,-1.57205495,-0.12101725
1603783110.69931602,-0.00585600,-0.00341600,1.02553200,-0.12801577,0.08942005,-0.03069500,0.59122000,0.08190000,0.18488746,-1.56591640,-0.12057878
1603783110.76181555,-0.00549000,-0.00024400,1.02565400,-0.20247775,0.06850221,0.17930500,-0.07378000,-0.16310000,0.18094125,-1.56810874,-0.12350190
1603783110.82429028,-0.00475800,-0.00109800,1.02419000,0.05592540,0.02828440,0.14430500,0.06622000,-0.23310000,0.18094125,-1.56810874,-0.12350190
1603783110.88681197,-0.00597800,-0.00219600,1.02455600,-0.00516980,0.09572104,0.28430500,-0.07378000,-0.16310000,0.19146448,-1.56986261,-0.12306343
1603783110.94927883,-0.00500200,-0.00207400,1.02663000,0.00496813,0.03324877,-0.27569500,0.90622000,0.18690000,0.19146448,-1.56986261,-0.12306343
1603783111.01180530,-0.00512400,-0.00427000,1.02394600,-0.12162763,0.09683109,0.21430500,-0.10878000,-0.05810000,0.18474130,-1.56957030,-0.12218650
1603783111.07430148,-0.00536800,0.00134200,1.02077400,0.19262433,-0.11440573,-0.13569500,0.41622000,0.11690000,0.18722596,-1.57468576,-0.11575563
1603783111.13714743,-0.00536800,0.02842600,1.01845600,0.11729844,-0.27198340,-0.24069500,0.97622000,0.15190000,0.18722596,-1.57468576,-0.11575563
1603783111.20009613,-0.00427000,-0.00183000,1.02236000,-0.03995076,0.26827179,0.00430500,0.27622000,0.04690000,0.18737211,-1.57059339,-0.12569424
1603783111.26251912,-0.00378200,-0.00292800,1.01967600,0.22698144,-0.16225930,0.17930500,0.80122000,0.11690000,0.18751827,-1.57190880,-0.12320959
1603783111.32500482,-0.00439200,-0.00195200,1.02406800,-0.12119855,0.19844538,0.10930500,0.31122000,-0.05810000,0.18751827,-1.57190880,-0.12320959
1603783111.38742638,-0.00353800,-0.00256200,1.02480000,0.14462759,-0.38797687,-0.17069500,0.69622000,0.25690000,0.19014908,-1.57205495,-0.12320959
1603783111.44995022,-0.00500200,-0.00036600,1.02528800,-0.10786870,0.04208716,-0.06569500,0.55622000,0.01190000,0.18737211,-1.56942414,-0.11575563
1603783111.51250720,-0.00451400,-0.00109800,1.02614200,0.08319008,0.01473630,-0.03069500,0.38122000,0.11690000,0.18737211,-1.56942414,-0.11575563
1603783111.57564545,-0.00366000,-0.00097600,1.02467800,0.18564555,-0.03262461,0.00430500,0.27622000,0.01190000,0.18605671,-1.56796258,-0.12247881
1603783111.63826942,-0.00378200,-0.00219600,1.02358000,-0.22264887,-0.02689977,0.52930500,-0.45878000,-0.23310000,0.18605671,-1.56796258,-0.12247881
1603783111.70093536,-0.00475800,-0.00146400,1.02565400,0.03531162,0.02879169,0.17930500,-0.03878000,-0.05810000,0.18737211,-1.57322420,-0.12014031
1603783111.76334858,-0.00524600,-0.00244000,1.02394600,-0.01949258,0.05643535,-0.17069500,0.34622000,0.01190000,0.18401052,-1.57073955,-0.11955569
1603783111.82593966,-0.00512400,-0.00183000,1.02553200,0.01505884,0.03497347,0.31930500,-0.10878000,-0.19810000,0.18401052,-1.57073955,-0.11955569
1603783111.88867998,-0.00390400,-0.00036600,1.02431200,0.09682615,0.04212262,-0.03069500,0.55622000,0.18690000,0.18079509,-1.57059339,-0.12028647
1603783111.95123124,-0.00402600,-0.00061000,1.02211600,0.08310442,-0.05985717,0.14430500,0.20622000,-0.33810000,0.18327974,-1.57073955,-0.12964046
1603783112.01374626,-0.00512400,-0.00341600,1.02333600,-0.06029724,0.00140507,0.17930500,-0.00378000,-0.26810000,0.18327974,-1.57073955,-0.12964046
1603783112.07606769,-0.00512400,-0.00048800,1.02675200,-0.12008799,0.43381156,0.14430500,0.06622000,-0.51310000,0.18620286,-1.56693949,-0.11750950
1603783112.13870740,-0.00500200,-0.00158600,1.02333600,0.20547701,-0.20375151,-0.13569500,0.45122000,0.53690000,0.18561824,-1.57527039,-0.11546331
1603783112.20146513,-0.00573400,-0.00353800,1.02284800,0.00859304,0.12921665,0.31930500,-0.07378000,-0.26810000,0.18561824,-1.57527039,-0.11546331
1603783112.26385832,-0.00561200,-0.00146400,1.02260400,0.06266683,0.07646695,-0.03069500,0.10122000,-0.09310000,0.18854136,-1.56767027,-0.12160187
1603783112.32636333,-0.00512400,0.00000000,1.02589800,0.00834669,0.04833300,0.31930500,-0.03878000,-0.19810000,0.18854136,-1.56767027,-0.12160187
1603783112.38868022,-0.00500200,0.00024400,1.02565400,0.13097921,0.04279070,0.31930500,-0.35378000,-0.16310000,0.18327974,-1.57731657,-0.12642502
1603783112.45120382,-0.00561200,-0.00402600,1.02419000,-0.10805586,0.07646466,0.42430500,-0.31878000,-0.47810000,0.18459515,-1.57073955,-0.12540193
1603783112.51396728,-0.00500200,-0.00219600,1.02577600,-0.00535977,0.04172269,0.07430500,0.20622000,-0.02310000,0.18459515,-1.57073955,-0.12540193
1603783112.57640958,-0.00341600,-0.00073200,1.02284800,0.07637809,-0.00578378,0.10930500,0.38122000,-0.33810000,0.18269512,-1.57307805,-0.12730196
1603783112.64000010,-0.00451400,-0.00244000,1.02406800,-0.01921601,0.01488597,0.14430500,0.17122000,-0.19810000,0.17904122,-1.57307805,-0.12423268
1603783112.70262027,-0.00414800,0.00012200,1.02577600,0.12411283,-0.03323412,0.84430500,-0.94878000,-0.58310000,0.17904122,-1.57307805,-0.12423268
1603783112.76508045,-0.00366000,0.00183000,1.02419000,0.21967308,-0.16941659,0.10930500,-0.00378000,-0.05810000,0.18854136,-1.57132417,-0.12598655
1603783112.82764626,-0.00390400,-0.00231800,1.02541000,0.05594714,-0.00589421,0.03930500,0.24122000,0.04690000,0.18532593,-1.57892429,-0.12072493
1603783112.89018917,-0.00488000,-0.00109800,1.01979800,-0.02664253,-0.05259925,-0.06569500,0.48622000,0.15190000,0.18532593,-1.57892429,-0.12072493
1603783112.95271730,-0.00414800,-0.00195200,1.05578800,-0.11266019,0.23578201,0.14430500,-0.00378000,-0.05810000,0.19029524,-1.57453961,-0.11721719
1603783113.01545644,-0.00512400,-0.00048800,1.05615400,-0.11968108,0.01962583,0.17930500,0.34622000,0.25690000,0.19029524,-1.57453961,-0.11721719
1603783113.07842207,-0.00475800,-0.00280600,1.02358000,-0.09993563,-0.19014649,0.00430500,0.45122000,0.08190000,0.18897983,-1.57790120,-0.12130956
1603783113.14099288,-0.00549000,-0.00305000,1.02431200,-0.14263729,-0.14190083,0.14430500,0.06622000,-0.12810000,0.18386437,-1.57848582,-0.12262496
1603783113.20343232,-0.00500200,-0.00073200,1.02675200,-0.00552045,0.04208868,0.31930500,-0.10878000,-0.30310000,0.18386437,-1.57848582,-0.12262496
1603783113.26600575,-0.00512400,-0.00085400,1.02589800,-0.03391176,0.05100856,-0.13569500,0.62622000,0.08190000,0.18883367,-1.57234727,-0.12189418
1603783113.32886386,-0.00524600,-0.00414800,1.02370200,-0.11444322,0.05541918,0.00430500,0.38122000,-0.12810000,0.18371821,-1.56825490,-0.12116340
1603783113.39165998,-0.00439200,-0.00280600,1.02516600,1.70899303,0.00822985,0.03930500,0.27622000,-0.19810000,0.18371821,-1.56825490,-0.12116340
1603783113.45413876,-0.00451400,-0.00061000,1.02565400,0.08323874,0.01437620,-0.13569500,0.31122000,0.04690000,0.18225665,-1.57527039,-0.12204034
1603783113.51659846,-0.00451400,-0.00341600,1.02516600,-0.07361549,0.08961585,0.31930500,-0.10878000,-0.12810000,0.19219526,-1.57161649,-0.11867875
1603783113.57914114,-0.00451400,-0.00122000,1.01992000,0.04876367,0.04332726,0.14430500,0.17122000,-0.33810000,0.19219526,-1.57161649,-0.11867875
1603783113.64167070,-0.00427000,-0.00183000,1.02577600,0.08322744,0.23933309,0.10930500,1.01122000,0.11690000,0.18401052,-1.57147033,-0.12364806
1603783113.70412779,-0.00402600,-0.00146400,1.02638600,0.09005690,-0.19680403,0.00430500,0.27622000,0.18690000,0.18401052,-1.57147033,-0.12364806
1603783113.76656127,-0.00390400,-0.00390400,1.02516600,-0.09404788,-0.08086117,0.14430500,0.34622000,0.04690000,0.19014908,-1.57322420,-0.12364806
1603783113.82927799,-0.00402600,-0.00134200,1.02419000,0.04843340,-0.16880130,0.00430500,0.38122000,0.08190000,0.19087986,-1.57263958,-0.12525577
1603783113.89203787,-0.00439200,-0.00256200,1.02492200,0.07613284,-0.35430227,0.00430500,0.38122000,-0.05810000,0.19087986,-1.57263958,-0.12525577
1603783113.95447206,-0.00329400,-0.00158600,1.02370200,0.03571973,-0.05411399,0.24930500,-0.00378000,-0.19810000,0.18371821,-1.57614733,-0.12525577
1603783114.01694632,-0.00549000,-0.00256200,1.02553200,0.17851098,0.06839777,0.35430500,-0.35378000,-0.37310000,0.18620286,-1.56518562,-0.12364806
1603783114.07970357,-0.00366000,-0.00305000,1.02504400,0.11045964,-0.03250210,0.07430500,0.41622000,0.01190000,0.18620286,-1.56518562,-0.12364806
1603783114.14229488,-0.00475800,-0.00122000,1.02528800,0.04853328,0.03051867,-0.03069500,0.45122000,0.11690000,0.18707980,-1.56986261,-0.12774043
1603783114.20495009,-0.00414800,-0.00109800,1.02565400,0.05578614,-0.00528596,-0.10069500,0.45122000,0.11690000,0.18298743,-1.57161649,-0.12320959
1603783114.26733851,-0.00500200,-0.00463600,1.02614200,-0.14155198,0.08249133,-0.27569500,1.08122000,0.11690000,0.18298743,-1.57161649,-0.12320959
1603783114.32982469,-0.00439200,-0.00183000,1.02028600,0.01453300,0.01582243,0.42430500,-0.14378000,-0.26810000,0.18737211,-1.57234727,-0.12613271
1603783114.39243078,-0.00524600,-0.00122000,1.02028600,-0.06767919,-0.00473131,0.10930500,-0.03878000,-0.23310000,0.18737211,-1.57234727,-0.12613271
1603783114.45485783,-0.00536800,-0.00158600,1.02797200,0.15809768,-0.17646747,-0.03069500,0.13622000,-0.16310000,0.17860275,-1.57439345,-0.12423268
1603783114.51725602,-0.00463600,-0.00231800,1.02358000,-0.18342612,-0.02579271,-0.10069500,0.48622000,0.11690000,0.18810289,-1.57249342,-0.12291728
1603783114.57970953,-0.00500200,-0.00183000,1.02455600,-0.03324530,-0.14870874,-0.27569500,0.62622000,0.08190000,0.18810289,-1.57249342,-0.12291728
1603783114.64206457,-0.00463600,-0.00048800,1.02541000,-0.03215515,0.02048134,-0.06569500,0.66122000,0.08190000,0.19058755,-1.56679334,-0.12291728
1603783114.70450974,-0.00414800,-0.00183000,1.02382400,0.01533749,-0.00655436,-0.20569500,0.76622000,0.11690000,0.18137971,-1.56767027,-0.11926337
1603783114.76685381,-0.00512400,-0.00244000,1.02358000,-0.01890734,0.04836670,-0.06569500,0.66122000,0.08190000,0.18137971,-1.56767027,-0.11926337
1603783114.82936025,-0.00512400,-0.00122000,1.02199400,0.04890279,0.04959651,-0.34569500,0.83622000,0.22190000,0.18956445,-1.56854721,-0.12204034
1603783114.89174199,-0.00597800,-0.00573400,1.02528800,-0.20312835,-0.10813267,0.42430500,-0.24878000,-0.51310000,0.18956445,-1.56854721,-0.12803274
1603783114.95412517,-0.00414800,-0.00256200,1.03492600,-0.03803916,0.35667873,0.14430500,0.48622000,0.04690000,0.18415668,-1.56781643,-0.12803274
1603783115.01656199,-0.00597800,-0.00231800,1.02577600,0.12417913,-0.07941012,-0.03069500,0.34622000,0.18690000,0.18196434,-1.56957030,-0.11634025
1603783115.07899189,-0.00463600,-0.00183000,1.02455600,-0.06553345,0.17540117,0.17930500,0.20622000,-0.05810000,0.18196434,-1.56957030,-0.11634025
1603783115.14140725,-0.00451400,-0.00085400,1.02516600,0.06981809,0.01330200,0.07430500,0.13622000,-0.09310000,0.18021046,-1.56971646,-0.11502485
1603783115.20392537,-0.00512400,-0.00146400,1.02455600,0.26019557,0.04812883,0.10930500,0.13622000,0.04690000,0.17845659,-1.57337036,-0.12014031
1603783115.26630926,-0.00475800,-0.00402600,1.02297000,-0.10752091,0.02802952,-0.41569500,0.83622000,0.18690000,0.17845659,-1.57337036,-0.12014031
1603783115.32886791,-0.00414800,-0.00292800,1.02614200,-0.04669484,-0.00534221,0.24930500,-0.00378000,-0.12810000,0.17757966,-1.57512423,-0.11707103
1603783115.39134383,-0.00475800,-0.00073200,1.02541000,0.07639757,-0.00589413,-0.13569500,0.59122000,0.22190000,0.18006431,-1.57015493,-0.11283251
1603783115.45376277,-0.00475800,-0.00012200,1.02711800,0.11049295,-0.02669578,-0.17069500,0.80122000,0.04690000,0.18006431,-1.57015493,-0.11283251
1603783115.51620412,-0.00488000,-0.00097600,1.01674800,0.05542437,-0.03141904,0.10930500,-0.07378000,-0.16310000,0.17641041,-1.57030108,-0.11283251
1603783115.57875705,-0.00488000,-0.00292800,1.02516600,-0.24407270,0.03506581,-0.06569500,0.45122000,0.01190000,0.17641041,-1.57030108,-0.11283251
1603783115.64150500,-0.00488000,-0.00207400,1.01565000,0.22053393,-0.18948980,-0.06569500,0.27622000,-0.23310000,0.18254896,-1.56825490,-0.11765566
1603783115.70418048,-0.00463600,-0.00146400,1.02492200,-0.03243984,-0.04028390,0.21430500,0.10122000,-0.33810000,0.18576440,-1.56620871,-0.12116340
1603783115.76656413,-0.00573400,-0.00280600,1.02528800,0.13767374,-0.02032921,0.07430500,0.45122000,-0.09310000,0.18576440,-1.56620871,-0.12116340
1603783115.82917833,-0.00427000,-0.00146400,1.02614200,0.17903162,0.00240781,0.35430500,-0.00378000,-0.19810000,0.17787197,-1.57044724,-0.10874013
1603783115.89163613,-0.00500200,-0.00207400,1.02284800,0.17883987,0.04269013,0.21430500,-0.03878000,-0.19810000,0.18766443,-1.57468576,-0.11064016
1603783115.95404506,-0.00475800,-0.00048800,1.02480000,1.84241094,0.02927599,0.31930500,-0.03878000,-0.23310000,0.18766443,-1.57468576,-0.11064016
1603783116.01651883,-0.00561200,-0.00183000,1.02528800,0.01503488,0.07594329,-0.41569500,1.18622000,0.32690000,0.18327974,-1.57512423,-0.11940953
1603783116.07895613,-0.00524600,-0.00244000,1.02455600,-0.01914939,0.13756751,-0.03069500,0.55622000,-0.02310000,0.19161064,-1.57512423,-0.11692488
1603783116.14142060,-0.00597800,-0.00158600,1.03090000,0.02915145,-0.08849441,0.35430500,-0.17878000,-0.02310000,0.19161064,-1.57512423,-0.11692488
1603783116.20395613,-0.00390400,-0.00244000,1.04041600,0.03667894,0.25949326,-0.10069500,0.48622000,0.11690000,0.19058755,-1.57220111,-0.11955569
1603783116.26624656,-0.00475800,-0.00256200,1.02443400,-0.21509306,0.20326303,0.10930500,0.03122000,0.08190000,0.19058755,-1.57220111,-0.11955569
1603783116.32867503,-0.00402600,-0.00244000,1.02626400,-0.02583677,0.04178893,0.00430500,0.31122000,-0.16310000,0.18532593,-1.57380883,-0.12394037
1603783116.39106202,-0.00573400,-0.00097600,1.02528800,-0.03249177,0.08234132,0.00430500,0.62622000,-0.16310000,0.19175680,-1.57424730,-0.12043262
1603783116.45346451,-0.00353800,-0.00268400,1.02699600,-0.12901432,-0.03924795,0.28430500,-0.00378000,-0.26810000,0.19175680,-1.57424730,-0.12043262
1603783116.51587987,-0.00488000,-0.00305000,1.02516600,-0.05381301,0.03611260,-0.13569500,0.48622000,0.04690000,0.18605671,-1.56927799,-0.12671733
1603783116.57833409,-0.00329400,-0.00170800,1.02272600,0.02161240,-0.05312876,0.17930500,0.27622000,-0.09310000,0.18342590,-1.57147033,-0.11897106
1603783116.64081812,-0.00500200,-0.00378200,1.02687400,-0.09371975,0.04142270,0.17930500,0.10122000,-0.23310000,0.18342590,-1.57147033,-0.11897106
1603783116.70325089,-0.00268400,-0.00170800,1.02114000,-0.04014347,-0.00492579,0.07430500,0.03122000,-0.33810000,0.19146448,-1.57015493,-0.11531716
1603783116.76564622,-0.00597800,-0.00488000,1.03346200,-0.20058461,0.22225213,0.21430500,0.59122000,0.11690000,0.18430284,-1.57775504,-0.12101725
1603783116.82815051,-0.00536800,-0.00183000,1.05591000,-0.01818372,-0.06153943,0.17930500,0.24122000,0.29190000,0.18430284,-1.57775504,-0.12101725
1603783116.89074993,-0.00390400,-0.00122000,1.02492200,0.04906543,0.00114982,0.07430500,0.27622000,-0.23310000,0.17860275,-1.57687811,-0.11750950
1603783116.95313454,-0.00463600,-0.00183000,1.02431200,0.02139272,-1.73122371,-0.03069500,0.27622000,0.11690000,0.17860275,-1.57687811,-0.11750950
1603783117.01553297,-0.00414800,-0.00146400,1.02504400,0.11048891,-0.00614199,0.00430500,0.41622000,0.04690000,0.19044139,-1.57497808,-0.12028647
1603783117.07785583,-0.00402600,-0.00231800,1.02504400,-0.01277798,-0.01174376,-0.27569500,0.66122000,0.29190000,0.18327974,-1.57220111,-0.12481730
1603783117.14068246,-0.00524600,-0.00219600,1.02528800,-0.00515573,0.05486412,0.00430500,0.31122000,0.08190000,0.18327974,-1.57220111,-0.12481730
1603783117.20306873,-0.00549000,-0.00183000,1.02431200,0.01796600,0.06033215,0.31930500,-0.31878000,-0.23310000,0.18707980,-1.57103186,-0.12496346
1603783117.26562023,-0.00292800,-0.00134200,1.02821600,0.04251882,0.09544462,-0.20569500,0.55622000,0.29190000,0.19204911,-1.56898568,-0.11897106
1603783117.32814455,-0.00219600,-0.00158600,1.02236000,-0.22454371,0.28193776,0.07430500,-0.17878000,-0.19810000,0.19204911,-1.56898568,-0.11897106
1603783117.39055109,-0.00475800,-0.00158600,1.03138800,-0.02502575,-0.27155302,0.07430500,-0.59878000,-0.47810000,0.18415668,-1.57132417,-0.12189418
1603783117.45291543,-0.00463600,-0.00219600,1.02333600,0.00791765,0.04262288,0.10930500,0.10122000,-0.16310000,0.19161064,-1.56971646,-0.11853259
1603783117.51542211,-0.00524600,-0.00292800,1.02467800,0.00084437,-0.05270968,0.10930500,0.34622000,0.11690000,0.19161064,-1.56971646,-0.11853259
1603783117.57770777,-0.00451400,-0.00207400,1.02541000,0.00163313,0.01407643,0.31930500,-0.28378000,-0.30310000,0.18488746,-1.57176264,-0.12101725
1603783117.64022756,-0.00549000,-0.00341600,1.02467800,-0.14868029,0.06923256,-0.27569500,0.73122000,0.25690000,0.18488746,-1.57176264,-0.12101725
1603783117.70261788,-0.00451400,-0.00207400,1.02553200,0.00127491,0.01485609,0.42430500,-0.21378000,-0.37310000,0.18810289,-1.57527039,-0.11634025
1603783117.76497650,-0.00610000,-0.00244000,1.02602000,-0.01895651,-0.00603252,0.21430500,0.06622000,-0.12810000,0.19292605,-1.56460099,-0.12233265
1603783117.82740211,-0.00488000,-0.00329400,1.02626400,-0.06660124,0.02796703,0.00430500,0.13622000,0.18690000,0.19292605,-1.56460099,-0.12233265
1603783117.89265513,-0.00451400,-0.00280600,1.02309200,0.16479565,0.01339116,-0.27569500,0.76622000,0.01190000,0.18620286,-1.57410114,-0.11999415
1603783117.95524979,-0.00585600,-0.00292800,1.02541000,-0.05225260,0.08787293,0.24930500,-0.03878000,-0.09310000,0.18678749,-1.56898568,-0.12204034
1603783118.01770544,-0.00390400,-0.00195200,1.02553200,0.00877176,-0.02061261,-0.34569500,1.01122000,0.25690000,0.18678749,-1.56898568,-0.12204034
1603783118.08013105,-0.00549000,-0.00341600,1.02443400,-0.07338895,0.06879642,0.45930500,-0.42378000,-0.30310000,0.18781058,-1.56620871,-0.11575563
1603783118.14264297,-0.00524600,-0.00097600,1.02797200,0.06290038,0.10232346,-0.13569500,0.76622000,0.08190000,0.17991815,-1.57833967,-0.12481730
1603783118.20512986,-0.00585600,-0.00402600,1.02297000,-0.10818766,0.17914390,0.03930500,0.24122000,0.01190000,0.17991815,-1.57833967,-0.12481730
1603783118.26753712,-0.00414800,-0.00256200,1.04102600,-0.01027219,0.35319706,0.03930500,0.55622000,0.25690000,0.18474130,-1.57234727,-0.11619410
1603783118.32998967,-0.00500200,-0.00231800,1.05603200,0.04304809,0.17408902,0.17930500,0.03122000,-0.26810000,0.18474130,-1.57234727,-0.11619410
1603783118.39253163,-0.00427000,-0.00109800,1.02748400,-0.02554686,0.11604771,-0.03069500,0.27622000,0.04690000,0.18094125,-1.57556270,-0.11926337
1603783118.45496941,-0.00512400,-0.00097600,1.02370200,0.13771485,0.00733133,-0.20569500,0.52122000,0.01190000,0.18386437,-1.57629348,-0.11824028
1603783118.51744127,-0.00414800,-0.00183000,1.02382400,-0.07852452,-0.00808063,0.49430500,-0.38878000,-0.33810000,0.18386437,-1.57629348,-0.11824028
1603783118.57997894,-0.00475800,-0.00048800,1.02565400,-0.15504729,0.02787070,-0.03069500,0.62622000,0.01190000,0.18517977,-1.57263958,-0.11897106
1603783118.64277363,-0.00402600,-0.00170800,1.02541000,0.02298519,-0.01535609,0.31930500,-0.14378000,-0.12810000,0.18430284,-1.57483192,-0.12496346
1603783118.70543480,-0.00451400,-0.00268400,1.02675200,-0.03327998,0.01557972,-0.10069500,0.52122000,-0.02310000,0.18430284,-1.57483192,-0.12496346
1603783118.76789999,-0.00390400,-0.00134200,1.02394600,0.04220626,-0.01921591,0.49430500,-0.42378000,-0.19810000,0.18737211,-1.57410114,-0.12452499
1603783118.83038044,-0.00512400,-0.00146400,1.02663000,0.03559395,-0.00616973,-0.06569500,0.52122000,0.15190000,0.18576440,-1.56927799,-0.12204034
1603783118.89292479,-0.00414800,-0.00134200,1.02736200,0.04245547,-0.15601947,0.38930500,-0.45878000,-0.26810000,0.18576440,-1.56927799,-0.12204034
1603783118.95546770,-0.00536800,-0.00183000,1.02797200,-0.01869609,0.12952106,0.14430500,-0.21378000,-0.19810000,0.18196434,-1.57044724,-0.12130956
1603783119.01793122,-0.00439200,-0.00268400,1.02101800,0.24052910,-0.05966634,-0.06569500,0.76622000,-0.19810000,0.18196434,-1.57044724,-0.12130956
1603783119.08037996,-0.00524600,-0.00268400,1.02358000,0.07634407,0.02853794,0.07430500,0.27622000,0.01190000,0.18108740,-1.56767027,-0.12335574
1603783119.14283228,-0.00463600,-0.00244000,1.02370200,-0.22775972,0.22917939,0.03930500,0.45122000,-0.19810000,0.18284127,-1.56781643,-0.12452499
1603783119.20545053,-0.00414800,-0.00207400,1.02455600,0.08321438,-0.00589412,0.07430500,-0.10878000,0.11690000,0.18284127,-1.56781643,-0.12452499
1603783119.26792622,-0.00500200,-0.00122000,1.02382400,-0.21695896,0.04201795,0.28430500,-0.07378000,-0.09310000,0.18225665,-1.57161649,-0.11707103
1603783119.33040428,-0.00536800,-0.00231800,1.02492200,-0.01208154,0.06195155,0.24930500,-0.28378000,-0.16310000,0.18678749,-1.57439345,-0.11560947
1603783119.39296746,-0.00524600,-0.00244000,1.02577600,-0.01900446,0.05538589,-0.03069500,0.27622000,-0.09310000,0.18678749,-1.57439345,-0.11560947
1603783119.45541620,-0.00451400,-0.00183000,1.02541000,0.01504698,0.06908932,0.35430500,-0.38878000,-0.05810000,0.18284127,-1.57468576,-0.12350190
1603783119.51790047,-0.00427000,-0.00170800,1.02114000,0.02146521,0.12513312,-0.13569500,0.45122000,0.04690000,0.22025723,-1.57088571,-0.12277112
1603783119.58037782,-0.00451400,0.02952400,1.01077000,0.13804514,-0.42438697,0.03930500,-0.35378000,-0.30310000,0.18868752,-1.57088571,-0.12277112
1603783119.64283347,-0.00366000,-0.00073200,1.02907000,-0.10005518,0.29213938,0.21430500,0.41622000,-0.09310000,0.18795674,-1.57190880,-0.11634025
1603783119.70545125,-0.00390400,-0.00170800,1.02419000,-0.03948893,-0.14223063,-0.13569500,0.55622000,0.15190000,0.18795674,-1.57190880,-0.11634025
1603783119.76791501,-0.00390400,-0.00109800,1.02406800,-0.07912107,0.24322749,0.38930500,-0.35378000,-0.26810000,0.18503362,-1.57205495,-0.12218650
1603783119.83045793,-0.00536800,-0.00109800,1.02553200,0.15789480,0.06004162,0.00430500,0.38122000,-0.05810000,0.19204911,-1.57161649,-0.12890968
1603783119.89291286,-0.00488000,-0.00207400,1.02419000,-0.19412192,0.03313364,-0.13569500,0.52122000,0.08190000,0.19204911,-1.57161649,-0.12890968
1603783119.95537448,-0.00402600,-0.00085400,1.02297000,1.81016348,-0.01334280,0.31930500,-0.10878000,-0.16310000,0.18327974,-1.57044724,-0.12744811
1603783120.01784563,-0.00463600,-0.00219600,1.02663000,-0.00560847,0.02180449,0.10930500,0.06622000,-0.09310000,0.18839521,-1.57410114,-0.12174803
1603783120.08044243,-0.00427000,-0.00256200,1.02772800,-0.02131899,-0.00663690,-0.48569500,1.15122000,0.25690000,0.18839521,-1.57410114,-0.12174803
1603783120.14346576,-0.00500200,-0.00305000,1.02577600,-0.05306049,0.00083650,-0.31069500,1.04622000,0.01190000,0.19351067,-1.57439345,-0.12043262
1603783120.20597410,-0.00512400,-0.00134200,1.02358000,0.04217963,0.02183579,-0.03069500,0.45122000,0.01190000,0.19351067,-1.57439345,-0.12993277
1603783120.26852632,-0.00439200,-0.00036600,1.02223800,0.09678441,-0.12142015,0.52930500,-0.70378000,-0.30310000,0.18781058,-1.57614733,-0.12993277
1603783120.33128834,-0.00597800,-0.00219600,1.02516600,-0.10770506,0.16461492,0.07430500,-0.17878000,-0.26810000,0.19321836,-1.57512423,-0.11955569
1603783120.39397168,-0.00561200,-0.00207400,1.02053000,0.38442565,-0.22396756,0.10930500,0.41622000,-0.12810000,0.19321836,-1.57512423,-0.11955569
1603783120.45637774,-0.00463600,-0.00097600,1.02614200,-0.16859403,0.11629654,0.14430500,0.10122000,-0.05810000,0.18781058,-1.57439345,-0.11853259
1603783120.51899934,-0.00488000,-0.00256200,1.02467800,-0.14758006,-0.12220682,0.31930500,-0.10878000,-0.33810000,0.18839521,-1.57220111,-0.11794797
1603783120.58150959,-0.00512400,-0.00097600,1.02541000,0.09002125,-0.16947335,-0.17069500,0.66122000,0.11690000,0.18839521,-1.57220111,-0.11794797
1603783120.64403868,-0.00512400,-0.00195200,1.02467800,-0.02460440,0.04614020,-0.13569500,0.48622000,0.15190000,0.18927214,-1.57424730,-0.11444022
1603783120.70653963,-0.00524600,-0.00231800,1.02406800,-0.01326087,0.05781103,-0.03069500,0.38122000,-0.02310000,0.18415668,-1.57439345,-0.11970184
1603783120.76903701,-0.00500200,-0.00109800,1.02419000,0.05558762,0.04346180,-0.03069500,0.10122000,0.08190000,0.18415668,-1.57439345,-0.11970184
1603783120.83154702,-0.00561200,-0.00341600,1.02419000,-0.07379767,0.07627825,0.38930500,-0.35378000,-0.40810000,0.18371821,-1.57570886,-0.11634025
1603783120.89419842,-0.00427000,-0.00317200,1.02345800,-0.06027446,0.10382148,0.52930500,-0.49378000,-0.47810000,0.18371821,-1.57570886,-0.12291728
1603783120.95682669,-0.00524600,-0.00073200,1.02260400,0.07628549,0.04258988,-0.03069500,0.34622000,-0.05810000,0.18488746,-1.57307805,-0.12291728
1603783121.01942849,-0.00439200,-0.00451400,1.02955800,-0.13390217,0.14932008,0.07430500,0.66122000,0.22190000,0.17889506,-1.57790120,-0.12189418
1603783121.08181524,-0.00402600,-0.00122000,1.02236000,0.13780984,0.02214566,0.03930500,0.06622000,-0.12810000,0.17889506,-1.57790120,-0.12189418
1603783121.14427328,-0.00475800,-0.00292800,1.05700800,-0.26703443,0.28152338,0.21430500,0.03122000,-0.09310000,0.18591055,-1.57819351,-0.12437884
1603783121.20691156,-0.00561200,-0.00329400,1.02480000,-0.07277311,0.30540237,0.14430500,0.17122000,0.18690000,0.18766443,-1.57629348,-0.12028647
1603783121.26951814,-0.00622200,-0.00146400,1.02541000,-0.12695711,0.43404976,0.14430500,-0.03878000,-0.16310000,0.18766443,-1.57629348,-0.12028647
1603783121.33201909,-0.00561200,-0.00231800,1.02419000,0.05620197,0.07460597,-0.17069500,0.62622000,0.08190000,0.17816428,-1.57527039,-0.11955569
1603783121.39448762,-0.00512400,-0.00195200,1.02321400,-0.11416802,0.04826322,0.21430500,-0.03878000,-0.16310000,0.18503362,-1.56854721,-0.11926337
1603783121.45703959,-0.00341600,-0.00219600,1.02309200,-0.00518574,-0.04713519,0.00430500,0.27622000,0.11690000,0.18503362,-1.56854721,-0.11926337
1603783121.51975203,-0.00451400,-0.00183000,1.02504400,0.01521654,0.01413635,0.24930500,-0.10878000,-0.16310000,0.17933353,-1.57395498,-0.12657118
1603783121.58230972,-0.00524600,-0.00207400,1.02431200,0.00120617,0.05597989,0.14430500,-0.28378000,-0.12810000,0.17933353,-1.57395498,-0.11838644
1603783121.64578009,-0.00451400,-0.00244000,1.02504400,-0.01853637,0.01362862,0.38930500,-0.24878000,-0.37310000,0.18649518,-1.57395498,-0.11838644
1603783121.70830274,-0.00378200,-0.00195200,1.02382400,0.00806046,-0.02601740,-0.27569500,0.94122000,0.25690000,0.18327974,-1.56883952,-0.12028647
1603783121.77076602,-0.00561200,-0.00256200,1.02919200,-0.02532631,0.14266872,0.07430500,0.31122000,-0.02310000,0.18327974,-1.56883952,-0.12028647
1603783121.83330798,-0.00366000,-0.00561200,1.02797200,-0.19548987,0.01392381,0.07430500,0.69622000,0.36190000,0.17977200,-1.57366267,-0.12788658
1603783121.89575386,-0.00451400,-0.00231800,1.01162400,0.11729844,-0.23766634,-0.06569500,0.59122000,0.01190000,0.18444899,-1.57103186,-0.12087109
1603783121.95839310,-0.00402600,-0.00207400,1.02175000,-0.16318805,0.07018493,0.07430500,-0.14378000,-0.05810000,0.18444899,-1.57103186,-0.12087109
1603783122.02115250,-0.00500200,-0.00244000,1.02480000,0.01466815,0.03601530,-0.10069500,0.41622000,0.04690000,0.18751827,-1.57687811,-0.12510962
1603783122.08360195,-0.00512400,-0.00195200,1.02553200,0.00833256,-0.13551084,-0.10069500,0.41622000,-0.30310000,0.18006431,-1.57760889,-0.11560947
1603783122.14612865,-0.00500200,-0.00195200,1.02650800,0.23337720,0.02180456,-0.20569500,0.59122000,0.04690000,0.18006431,-1.57760889,-0.11560947
1603783122.20867467,-0.00561200,-0.00390400,1.02492200,0.04882940,0.07729272,-0.10069500,0.48622000,0.15190000,0.18693365,-1.57658579,-0.12130956
1603783122.27118778,-0.00451400,-0.00292800,1.02589800,0.03612461,0.01262035,0.38930500,-0.42378000,-0.12810000,0.18693365,-1.57658579,-0.12130956
1603783122.33377719,-0.00451400,-0.00341600,1.02431200,-0.07197253,0.01244206,0.14430500,0.20622000,-0.09310000,0.18839521,-1.57833967,-0.12350190
1603783122.39628482,-0.00427000,-0.00244000,1.02406800,-0.01921615,0.00123466,-0.06569500,0.48622000,-0.02310000,0.18284127,-1.57863198,-0.12262496
1603783122.45886850,-0.00622200,-0.00305000,1.02150600,-0.05377320,-0.05290893,0.14430500,0.10122000,-0.09310000,0.18284127,-1.57863198,-0.12262496
1603783122.52141070,-0.00488000,-0.00292800,1.01565000,-0.04787782,-0.12754892,0.14430500,0.27622000,-0.12810000,0.18605671,-1.57804735,-0.12364806
1603783122.58390427,-0.00475800,-0.00085400,1.01662600,0.04854129,-0.01764298,0.07430500,0.06622000,-0.05810000,0.18006431,-1.57863198,-0.11970184
1603783122.64641809,-0.00439200,-0.00158600,1.02724000,-0.03920559,0.18421738,0.07430500,0.52122000,-0.05810000,0.18006431,-1.57863198,-0.11970184
1603783122.70905638,-0.00463600,-0.00097600,1.02541000,-0.04576110,0.02051178,0.07430500,0.38122000,-0.19810000,0.18225665,-1.57994738,-0.12233265
1603783122.77163267,-0.00439200,-0.00329400,1.02553200,0.07621153,-0.14179686,0.03930500,0.34622000,-0.23310000,0.18985677,-1.57322420,-0.12774043
1603783122.83414364,-0.00427000,-0.00146400,1.02358000,-0.07313996,0.06839626,0.24930500,0.06622000,-0.16310000,0.18985677,-1.57322420,-0.12774043
1603783122.89674544,-0.00414800,-0.00085400,1.02553200,0.08324274,-0.00608698,-0.13569500,0.59122000,0.04690000,0.18079509,-1.57819351,-0.11838644
1603783122.95947742,-0.00561200,-0.00268400,1.02345800,-0.08776482,0.07676489,-0.03069500,0.34622000,-0.02310000,0.18079509,-1.57819351,-0.11838644
1603783123.02205920,-0.00475800,-0.00207400,1.02211600,0.14451058,0.02765297,0.31930500,-0.07378000,-0.23310000,0.19248758,-1.57673195,-0.11970184
1603783123.08462715,-0.00439200,-0.00195200,1.02492200,0.00873341,0.00660555,-0.06569500,0.27622000,0.01190000,0.18737211,-1.57278574,-0.12247881
1603783123.14747572,-0.00475800,-0.00122000,1.02297000,0.04921961,0.02784196,0.00430500,0.34622000,0.08190000,0.18737211,-1.57278574,-0.12247881
1603783123.21011305,-0.00402600,-0.00268400,1.02406800,-0.03286770,-0.01241682,-0.06569500,0.45122000,0.11690000,0.18401052,-1.57717042,-0.11824028
1603783123.27267051,-0.00414800,-0.00256200,1.02150600,-0.02640105,0.02920482,-0.03069500,0.31122000,-0.05810000,0.18196434,-1.57380883,-0.12627887
1603783123.33516312,-0.00512400,-0.00085400,1.01967600,0.06931216,-0.10741777,0.52930500,-0.56378000,-0.37310000,0.18196434,-1.57380883,-0.12627887
1603783123.39774156,-0.00451400,-0.00097600,1.00857400,-0.03517547,-0.34855639,0.07430500,-0.00378000,-0.05810000,0.18035662,-1.57293189,-0.12686349
1603783123.46033144,-0.00378200,-0.00158600,1.01918800,0.01442252,0.04352881,0.28430500,0.06622000,-0.30310000,0.18620286,-1.57760889,-0.12525577
1603783123.52285290,-0.00585600,-0.00183000,1.02541000,0.03525209,-0.16929439,0.03930500,0.34622000,0.04690000,0.18620286,-1.57760889,-0.12525577
1603783123.58533430,-0.00427000,-0.00280600,1.02394600,-0.15264135,0.03227345,0.31930500,-0.14378000,-0.02310000,0.18430284,-1.57161649,-0.11268635
1603783123.64779472,-0.00402600,-0.00231800,1.02406800,-0.07464501,-0.01144711,0.31930500,-0.17878000,-0.05810000,0.18430284,-1.57161649,-0.11268635
1603783123.71037626,-0.00439200,-0.00207400,1.02553200,-0.06033951,0.00829425,0.21430500,-0.07378000,-0.05810000,0.17889506,-1.57804735,-0.11648641
1603783123.77298880,-0.00475800,-0.00097600,1.02553200,-0.17165161,0.03064426,0.00430500,0.27622000,0.22190000,0.18620286,-1.57556270,-0.11634025
1603783123.83554101,-0.00402600,-0.00305000,1.02370200,-0.05467647,-0.01065922,0.00430500,0.45122000,-0.12810000,0.18620286,-1.57556270,-0.11634025
1603783123.89813781,-0.00524600,-0.00170800,1.02553200,0.02170439,0.05594509,0.49430500,-0.31878000,-0.26810000,0.18357205,-1.56942414,-0.11619410
1603783123.96058440,-0.00634400,-0.00158600,1.02504400,0.02864890,0.07601807,0.03930500,0.06622000,0.11690000,0.18254896,-1.57337036,-0.11897106
1603783124.02315164,-0.00561200,-0.00219600,1.02919200,-0.00495280,0.02721209,-0.31069500,0.76622000,0.18690000,0.18254896,-1.57337036,-0.11897106
1603783124.08574796,-0.00378200,-0.00219600,1.01711400,0.04170139,-0.32013585,0.38930500,-0.17878000,-0.33810000,0.18839521,-1.57453961,-0.11794797
1603783124.14829683,-0.00488000,-0.00366000,1.02699600,-0.17534805,0.49056344,0.03930500,0.87122000,0.32690000,0.18503362,-1.57410114,-0.12057878
1603783124.21087623,-0.00585600,-0.00231800,1.02358000,0.03535008,-0.09425661,-0.10069500,0.24122000,0.08190000,0.18503362,-1.57410114,-0.12057878
1603783124.27343416,-0.00524600,-0.00122000,1.05676400,-0.05874052,0.20243468,0.14430500,0.06622000,0.15190000,0.18897983,-1.57731657,-0.11634025
1603783124.33595800,-0.00427000,-0.00231800,1.02504400,0.19249700,0.14516544,-0.06569500,0.45122000,-0.23310000,0.18897983,-1.57731657,-0.11634025
1603783124.39847207,-0.00366000,-0.00414800,1.02297000,-0.18887294,-0.03355263,0.21430500,0.17122000,-0.16310000,0.19058755,-1.58009354,-0.12452499
1603783124.46099567,-0.00475800,-0.00146400,1.02284800,0.18602235,0.03035783,0.35430500,-0.10878000,-0.30310000,0.18298743,-1.57863198,-0.12554809
1603783124.52356172,-0.00585600,-0.00341600,1.02382400,-0.07298148,0.08852896,-0.06569500,0.59122000,0.08190000,0.18298743,-1.57863198,-0.12554809
1603783124.58613253,-0.00463600,-0.00231800,1.02553200,-0.01359089,0.02411300,-0.17069500,0.31122000,0.08190000,0.18474130,-1.57059339,-0.12189418
1603783124.64904928,-0.00353800,-0.00353800,1.02455600,-0.07868663,-0.04168127,0.00430500,0.62622000,-0.02310000,0.18430284,-1.56840105,-0.12130956
1603783124.71180487,-0.00475800,-0.00061000,1.02467800,0.08314131,0.02876014,0.14430500,0.24122000,-0.19810000,0.18430284,-1.56840105,-0.12130956
1603783124.77440810,-0.00512400,-0.00122000,1.02541000,0.04913028,-0.01952776,0.31930500,0.13622000,-0.26810000,0.18430284,-1.57848582,-0.12467115
1603783124.83706760,-0.00536800,-0.00317200,1.02846000,-0.05941060,0.11575342,0.00430500,0.52122000,-0.02310000,0.18547208,-1.57205495,-0.12554809
1603783124.89972997,-0.00402600,-0.00097600,1.02419000,0.06269889,-0.03291764,0.52930500,-0.28378000,-0.26810000,0.18547208,-1.57205495,-0.12554809
1603783124.96217871,-0.00463600,-0.00146400,1.01955400,0.01446036,0.13255312,0.03930500,-0.17878000,-0.19810000,0.18284127,-1.57103186,-0.12817890
1603783125.02471137,-0.00463600,-0.00170800,1.02382400,-0.06021293,-0.02601804,0.07430500,0.06622000,0.18690000,0.18284127,-1.57103186,-0.12817890
1603783125.08711100,-0.00402600,-0.00219600,1.02443400,-0.07989322,0.12951992,0.10930500,0.03122000,-0.61810000,0.18342590,-1.57030108,-0.11955569
1603783125.14970994,-0.00451400,-0.00244000,1.02345800,-0.03845119,-0.13609057,0.28430500,0.06622000,-0.30310000,0.18883367,-1.57380883,-0.12481730
1603783125.21228075,-0.00451400,-0.00122000,1.02736200,0.00756389,0.01609546,0.31930500,0.03122000,-0.19810000,0.18883367,-1.57380883,-0.12481730
1603783125.27469420,-0.00451400,-0.00146400,1.02382400,-0.29625598,0.01317677,0.21430500,-0.03878000,-0.12810000,0.18620286,-1.57556270,-0.12218650
1603783125.33727527,-0.00378200,-0.00244000,1.02321400,-0.01987005,-0.02505490,0.35430500,-0.10878000,-0.19810000,0.19482607,-1.57731657,-0.12540193
1603783125.39989328,-0.00549000,-0.00366000,1.02333600,-0.08879760,0.07147855,0.31930500,-0.00378000,-0.19810000,0.19482607,-1.57731657,-0.12540193
1603783125.46234894,-0.00463600,0.00036600,1.02528800,0.13714666,0.02036139,0.10930500,0.06622000,-0.09310000,0.18693365,-1.57103186,-0.11517100
1603783125.52492476,-0.00524600,-0.00378200,1.02223800,-0.09467517,0.11790376,0.42430500,-0.31878000,-0.30310000,0.18985677,-1.56986261,-0.12759427
1603783125.58733916,-0.00512400,-0.00219600,1.02260400,0.09679188,-0.00525812,0.07430500,-0.63378000,-0.33810000,0.18985677,-1.56986261,-0.12759427
1603783125.64987016,-0.00402600,-0.00207400,1.02785000,-0.03231623,-0.17646040,0.10930500,0.13622000,-0.12810000,0.18927214,-1.57044724,-0.12204034
1603783125.71242642,-0.00451400,-0.00109800,1.02589800,-0.03304713,-0.04631730,0.17930500,0.24122000,0.08190000,0.18927214,-1.57044724,-0.12204034
1603783125.77492785,-0.00463600,-0.00244000,1.02419000,0.00868320,0.12891237,0.03930500,0.20622000,-0.19810000,0.18839521,-1.57395498,-0.11517100
1603783125.83754396,-0.00341600,-0.00219600,1.02443400,-0.01260711,0.00163384,0.10930500,0.06622000,-0.02310000,0.18839521,-1.56635487,-0.12043262
1603783125.90003920,-0.00366000,-0.00231800,1.02553200,-0.08696243,-0.03340547,-0.13569500,0.69622000,0.11690000,0.18839521,-1.56635487,-0.12043262
1603783125.96264362,-0.00475800,-0.00183000,1.02480000,-0.03082038,0.02490855,0.28430500,-0.10878000,-0.37310000,0.19336451,-1.56942414,-0.12759427
1603783126.02525210,-0.00463600,0.00024400,1.02467800,-1.62357734,0.02274047,0.07430500,0.34622000,-0.09310000,0.18357205,-1.57249342,-0.11634025
1603783126.08774686,-0.00646600,-0.00305000,1.02626400,-0.05375023,0.12495872,0.28430500,0.13622000,-0.19810000,0.18357205,-1.57249342,-0.11634025
1603783126.15043783,-0.00341600,-0.00158600,1.02663000,0.02878502,-0.04702178,0.17930500,-0.21378000,-0.19810000,0.18971061,-1.57673195,-0.12130956
1603783126.21307445,-0.00707600,-0.00305000,1.02931400,-0.04747355,0.11824296,-0.41569500,0.62622000,0.50190000,0.19014908,-1.56854721,-0.11692488
1603783126.27573681,0.02903600,0.00097600,1.03395000,0.17138292,-0.27822970,0.03930500,0.17122000,-0.02310000,0.19014908,-1.56854721,-0.11692488
1603783126.33845830,-0.00512400,-0.00280600,1.02480000,-0.03957923,0.13065722,-0.34569500,0.80122000,0.11690000,0.18503362,-1.57117802,-0.11999415
1603783126.40099812,-0.00378200,-0.00012200,1.02138400,0.08308008,0.01555030,0.07430500,0.80122000,0.18690000,0.18503362,-1.57117802,-0.11999415
1603783126.46349907,-0.00402600,-0.00512400,1.03077800,-0.26243341,0.33871785,0.14430500,0.20622000,0.15190000,0.18839521,-1.56679334,-0.11473253
1603783126.52622008,-0.00341600,-0.00085400,1.02394600,-0.01284119,-0.23766634,0.00430500,0.41622000,0.11690000,0.18664133,-1.56664718,-0.12481730
1603783126.58913493,-0.00475800,-0.00329400,1.02406800,-0.03906106,-0.33284161,-0.06569500,0.48622000,-0.26810000,0.18664133,-1.56664718,-0.12481730
1603783126.65172052,-0.00585600,-0.00158600,1.02565400,0.02160064,-0.13513298,-0.10069500,0.55622000,-0.16310000,0.18386437,-1.57132417,-0.11838644
1603783126.71422887,-0.00427000,-0.00231800,1.02528800,-0.07241931,0.06723806,0.00430500,0.24122000,-0.12810000,0.18737211,-1.56913183,-0.12087109
1603783126.77686071,-0.00597800,-0.00317200,1.02431200,0.04221594,0.09679386,-0.06569500,0.24122000,0.01190000,0.18737211,-1.56913183,-0.12087109
1603783126.83964443,-0.00317200,-0.00305000,1.02467800,-0.08231266,-0.05870474,0.10930500,0.17122000,-0.05810000,0.17611809,-1.57117802,-0.11736334
1603783126.90221810,-0.00597800,-0.00207400,1.02675200,0.11043596,0.09859680,-0.03069500,0.27622000,0.08190000,0.18795674,-1.57088571,-0.11721719
1603783126.96592832,-0.00353800,-0.00378200,1.02626400,0.22711226,-0.03862850,-0.13569500,0.38122000,0.11690000,0.18795674,-1.57088571,-0.11721719
1603783127.02844310,-0.00402600,-0.00158600,1.02577600,0.02216869,-0.01343146,0.24930500,0.20622000,-0.12810000,0.18532593,-1.57103186,-0.12759427
1603783127.09090877,-0.00439200,-0.00280600,1.02589800,-0.03887455,0.00677878,0.07430500,0.03122000,-0.12810000,0.18532593,-1.57103186,-0.12759427
1603783127.15341187,-0.00585600,-0.00402600,1.02419000,-0.10954254,0.09228513,0.10930500,-0.00378000,-0.02310000,0.18430284,-1.57059339,-0.12335574
1603783127.21598125,-0.00536800,-0.00268400,1.02724000,-0.03240070,0.20463045,-0.20569500,0.45122000,0.15190000,0.18956445,-1.57234727,-0.12408652
1603783127.27841163,-0.00378200,-0.00317200,1.02589800,-0.05985162,0.13026264,0.07430500,0.41622000,-0.19810000,0.18956445,-1.57234727,-0.12408652
1603783127.34089470,-0.00451400,-0.00195200,1.03334000,-0.18032535,0.31700235,0.14430500,-0.07378000,-0.05810000,0.17933353,-1.56883952,-0.12584040
1603783127.40340900,-0.00390400,-0.00256200,1.03090000,-0.33697108,0.28440635,0.21430500,0.03122000,-0.05810000,0.17772581,-1.57351652,-0.11794797
1603783127.46595192,-0.00512400,-0.00122000,1.02553200,0.10357657,-0.36116321,0.10930500,0.62622000,0.11690000,0.17772581,-1.57351652,-0.11794797
1603783127.52960467,-0.00500200,-0.00341600,1.03822000,-0.07793624,0.46250168,0.21430500,0.45122000,0.15190000,0.18459515,-1.56635487,-0.12101725
1603783127.59219217,-0.00402600,-0.00280600,1.02443400,-0.08739851,0.07620322,0.07430500,-0.31878000,-0.23310000,0.17977200,-1.57790120,-0.12671733
1603783127.65478444,-0.00439200,-0.00231800,1.02455600,-0.13491507,0.24631512,0.10930500,0.13622000,-0.12810000,0.17977200,-1.57790120,-0.12671733
1603783127.71747017,-0.00427000,-0.00268400,1.02309200,-0.07368451,0.04198786,0.07430500,0.34622000,-0.09310000,0.18459515,-1.57527039,-0.12540193
1603783127.77994943,-0.00512400,-0.00305000,1.02394600,-0.26913673,0.06741319,0.03930500,0.27622000,-0.02310000,0.18459515,-1.57527039,-0.12540193
1603783127.84249210,-0.00378200,-0.00317200,1.02443400,-0.18436169,-0.02513356,0.31930500,-0.17878000,-0.19810000,0.18488746,-1.57380883,-0.12204034
1603783127.90500093,-0.00536800,-0.00170800,1.02321400,0.02203368,0.06173840,0.24930500,-0.00378000,-0.12810000,0.18561824,-1.57380883,-0.11867875
1603783127.96744990,-0.00451400,-0.00207400,1.02577600,0.00243786,0.01232495,0.35430500,-0.21378000,-0.33810000,0.18561824,-1.57380883,-0.11867875
1603783128.03004313,-0.00427000,-0.00219600,1.02602000,-0.00533100,0.00078029,0.10930500,0.10122000,-0.02310000,0.18503362,-1.57483192,-0.11911722
1603783128.09259605,-0.00402600,-0.00244000,1.02467800,-0.01913542,-0.06030221,0.07430500,0.20622000,-0.09310000,0.18517977,-1.57541654,-0.12057878
1603783128.15502715,-0.00500200,-0.00561200,1.02943600,-0.19503669,0.25120955,-0.10069500,0.62622000,0.01190000,0.18517977,-1.57541654,-0.12057878
1603783128.21763659,-0.00268400,-0.00329400,1.04407600,0.07043542,0.28452875,0.07430500,0.76622000,-0.02310000,0.18342590,-1.57176264,-0.12189418
1603783128.28008580,-0.00402600,-0.00085400,1.03212000,-0.09941318,0.28380194,0.03930500,0.48622000,0.08190000,0.19277989,-1.57424730,-0.11853259
1603783128.34256315,-0.00646600,-0.00268400,1.02553200,0.03585658,0.16275922,0.28430500,0.03122000,-0.09310000,0.19277989,-1.57424730,-0.11853259
1603783128.40519977,-0.00414800,-0.00048800,1.02577600,-0.09409429,0.14420635,0.31930500,-0.03878000,-0.37310000,0.18415668,-1.57483192,-0.11794797
1603783128.46767473,-0.00475800,-0.00097600,1.02565400,0.09017646,0.02677381,0.07430500,0.34622000,-0.05810000,0.18415668,-1.57483192,-0.11794797
1603783128.53026628,-0.00475800,-0.00244000,1.02284800,0.14452674,0.02781057,-0.17069500,0.55622000,0.18690000,0.18503362,-1.57424730,-0.11897106
1603783128.59288073,-0.00402600,-0.00317200,1.02541000,-0.07278020,-0.01364493,-0.13569500,0.55622000,0.11690000,0.18956445,-1.57278574,-0.12174803
1603783128.65538764,-0.00427000,-0.00231800,1.02284800,1.73920450,0.00182436,0.03930500,0.38122000,0.01190000,0.18956445,-1.57278574,-0.12174803
1603783128.71789837,-0.00524600,-0.00280600,1.02480000,-0.03958042,0.05562982,0.28430500,-0.00378000,-0.26810000,0.18532593,-1.57600117,-0.11590178
1603783128.78046560,-0.00549000,-0.00219600,1.02577600,-0.00535915,0.09623649,-0.55569500,1.36122000,0.32690000,0.18971061,-1.57249342,-0.11517100
1603783128.84308457,-0.00475800,-0.00244000,1.02589800,-0.01897196,0.06212961,0.21430500,0.13622000,-0.16310000,0.18971061,-1.57249342,-0.11517100
1603783128.90557265,-0.00597800,-0.00195200,1.02480000,0.05591174,0.17840260,0.14430500,-0.21378000,-0.51310000,0.18167203,-1.57073955,-0.11575563
1603783128.96794081,-0.00463600,-0.00317200,1.02321400,-0.06031642,0.12439653,0.17930500,0.20622000,0.11690000,0.17714119,-1.57410114,-0.11254019
1603783129.03042936,-0.00402600,-0.00268400,1.02504400,0.26778840,-0.27870901,-0.06569500,0.45122000,-0.12810000,0.17714119,-1.57410114,-0.11254019
1603783129.09294415,-0.00366000,-0.00366000,1.02406800,-0.13479890,0.13026084,0.07430500,0.10122000,-0.44310000,0.18664133,-1.57190880,-0.12452499
1603783129.15560436,-0.00500200,0.00000000,1.02553200,0.01578265,-0.08200869,0.17930500,-0.10878000,-0.02310000,0.18664133,-1.57190880,-0.12452499
1603783129.21865582,-0.00231800,-0.00341600,1.02370200,0.01532457,-0.25126285,-0.06569500,0.03122000,-0.02310000,0.18430284,-1.57439345,-0.11531716
1603783129.28121996,-0.00536800,-0.00219600,1.02553200,-0.01900438,0.06220093,0.10930500,0.20622000,-0.02310000,0.18620286,-1.57833967,-0.11707103
1603783129.34386396,-0.00585600,-0.00207400,1.02724000,0.18580012,0.09114347,0.10930500,0.20622000,-0.05810000,0.18620286,-1.57833967,-0.11707103
1603783129.40643668,-0.00536800,-0.00317200,1.02467800,-0.05918129,0.06099253,0.21430500,-0.10878000,-0.09310000,0.18488746,-1.57030108,-0.11458638
1603783129.46893525,-0.00610000,-0.00268400,1.02626400,-0.03380221,0.10574588,0.24930500,0.31122000,-0.12810000,0.18444899,-1.57643964,-0.11444022
1603783129.53143024,-0.00451400,-0.00280600,1.02565400,-0.03944980,0.05538562,0.14430500,0.06622000,-0.09310000,0.18444899,-1.57643964,-0.11444022
1603783129.59389925,-0.00488000,-0.00195200,1.02382400,0.00806012,-0.08063616,0.07430500,0.62622000,-0.12810000,0.18517977,-1.57877814,-0.11224788
1603783129.65634918,-0.00646600,0.02818200,1.02016400,0.15155799,-0.34044505,0.03930500,-0.35378000,-0.58310000,0.18517977,-1.57059339,-0.11955569
1603783129.71898055,-0.00317200,-0.00329400,1.02297000,-0.08085498,0.22697341,0.10930500,1.22122000,0.29190000,0.18517977,-1.57059339,-0.11955569
1603783129.78132987,-0.00475800,-0.00109800,1.02492200,-0.04554950,-0.05446234,0.21430500,0.06622000,-0.68810000,0.18313359,-1.57629348,-0.11473253
1603783129.84386969,-0.00390400,-0.00268400,1.02516600,0.05549834,-0.08659929,0.14430500,0.24122000,-0.02310000,0.18313359,-1.57629348,-0.11473253
1603783129.90639949,-0.00622200,-0.00207400,1.02504400,0.01482796,0.11073524,-0.17069500,0.45122000,0.04690000,0.18737211,-1.57088571,-0.11502485
1603783129.96894550,-0.00378200,-0.00195200,1.02382400,-0.15443485,-0.02707336,0.17930500,0.27622000,-0.16310000,0.18152587,-1.57892429,-0.11560947
1603783130.03142071,-0.00793000,-0.00500200,1.02394600,-0.16214935,0.20536330,-0.24069500,0.52122000,0.15190000,0.18152587,-1.57892429,-0.11560947
1603783130.09385133,-0.00256200,-0.00305000,1.02053000,-0.05399859,-0.09377690,0.59930500,-0.52878000,-0.30310000,0.18547208,-1.57263958,-0.12160187
1603783130.15638614,-0.00585600,-0.00500200,1.02406800,-0.16255244,0.09679016,0.00430500,0.24122000,-0.05810000,0.18897983,-1.57322420,-0.11356329
1603783130.21899462,-0.00268400,-0.00353800,1.02431200,-0.08059864,0.08988857,0.21430500,0.13622000,-0.16310000,0.18897983,-1.57322420,-0.11356329
1603783130.28141499,-0.00305000,-0.00427000,1.02431200,-0.35355292,0.05576074,-0.06569500,0.94122000,0.18690000,0.18737211,-1.57351652,-0.12277112
1603783130.34394717,-0.00549000,-0.00036600,1.02004200,0.34343589,-0.00467619,0.10930500,0.62622000,0.15190000,0.18868752,-1.57190880,-0.12174803
1603783130.40644670,-0.00353800,-0.00402600,1.05652000,-0.26712838,0.22094956,0.10930500,0.20622000,0.08190000,0.18868752,-1.57190880,-0.12174803
1603783130.46895790,-0.00658800,-0.00061000,1.02907000,0.10366189,0.21916286,0.28430500,-0.00378000,-0.12810000,0.18868752,-1.56942414,-0.12467115
1603783130.53147030,-0.00292800,-0.00439200,1.02236000,-0.00577106,-0.26501509,0.10930500,0.27622000,0.04690000,0.18868752,-1.56942414,-0.12467115
1603783130.59395099,-0.00524600,-0.00134200,1.02419000,0.02752689,0.05927152,-0.06569500,0.48622000,0.08190000,0.18620286,-1.57278574,-0.12496346
1603783130.65681887,-0.00195200,-0.00439200,1.02089600,-0.01239134,-0.12845392,0.00430500,0.34622000,-0.02310000,0.18751827,-1.57000877,-0.11750950
1603783130.71941996,-0.00549000,-0.00195200,1.02199400,1.77435614,0.07299019,-0.03069500,0.34622000,0.18690000,0.18751827,-1.57000877,-0.11750950
1603783130.78187871,-0.00707600,-0.00317200,1.02589800,-0.06027337,0.15845791,-0.24069500,0.62622000,0.08190000,0.18064893,-1.57395498,-0.11794797
1603783130.84439778,-0.00268400,-0.00366000,1.02553200,-0.08113853,-0.09214603,-0.17069500,0.66122000,0.18690000,0.18240281,-1.57833967,-0.12569424
1603783130.90687132,-0.00402600,-0.00097600,1.02675200,0.06283502,-0.06746795,0.56430500,-0.35378000,-0.40810000,0.18240281,-1.57833967,-0.12569424
1603783130.96943069,-0.00439200,0.00000000,1.02248200,0.11729844,-0.10777516,-0.24069500,0.69622000,0.11690000,0.18766443,-1.57073955,-0.12204034
1603783131.03209949,-0.00561200,-0.00073200,1.02553200,-0.05991047,0.30759919,0.24930500,-0.00378000,-0.37310000,0.15024847,-1.57322420,-0.12204034
1603783131.09462333,-0.00305000,-0.00195200,1.02894800,-0.04574301,-0.10859193,0.07430500,0.17122000,-0.05810000,0.17991815,-1.57322420,-0.12204034
1603783131.15712309,-0.00427000,-0.00268400,1.02431200,0.27397389,-0.34665789,0.00430500,0.27622000,-0.16310000,0.18824905,-1.57527039,-0.12247881
1603783131.21969771,-0.00573400,-0.00256200,1.02528800,0.06240458,-0.05239928,-0.10069500,0.10122000,0.01190000,0.18824905,-1.57527039,-0.12247881
1603783131.28218269,-0.00549000,-0.00183000,1.02492200,-0.14032718,0.06741704,0.14430500,0.17122000,-0.19810000,0.18591055,-1.57103186,-0.11765566
1603783131.34471583,-0.00402600,-0.00207400,1.02333600,0.11729844,-0.01160812,0.10930500,0.45122000,0.04690000,0.18064893,-1.56679334,-0.12364806
1603783131.40730882,-0.00402600,-0.00292800,1.02565400,-0.04661673,-0.01228271,-0.27569500,0.76622000,0.11690000,0.18064893,-1.56679334,-0.12364806
1603783131.46971345,-0.00610000,-0.00353800,1.02577600,-0.08114195,0.10447360,-0.13569500,0.62622000,0.08190000,0.18313359,-1.57103186,-0.12510962
1603783131.53218436,-0.00427000,-0.00109800,1.02565400,0.05596177,0.00086578,0.21430500,0.13622000,-0.19810000,0.17860275,-1.57161649,-0.12218650
1603783131.59490895,-0.00427000,-0.00134200,1.02565400,0.04233149,0.01449595,-0.17069500,0.59122000,-0.05810000,0.17860275,-1.57161649,-0.12218650
1603783131.65732384,-0.00414800,-0.00500200,1.02528800,-0.16221886,0.11684426,0.07430500,0.06622000,0.04690000,0.18459515,-1.57643964,-0.12028647
1603783131.71985722,-0.00292800,-0.00292800,1.02785000,-0.06631416,0.19756696,0.24930500,-0.35378000,-0.30310000,0.18459515,-1.57643964,-0.12379421
1603783131.78242064,-0.00451400,-0.00268400,1.02345800,-0.32661788,0.25405747,0.17930500,0.55622000,-0.09310000,0.18722596,-1.56518562,-0.12379421
1603783131.84490919,-0.00634400,-0.00366000,1.05542200,-0.12004306,0.13530044,0.07430500,1.11622000,0.60690000,0.18137971,-1.57059339,-0.12277112
1603783131.90797949,-0.00256200,-0.00231800,1.02358000,-0.23018938,-0.00600858,0.14430500,-0.03878000,-0.30310000,0.18137971,-1.57059339,-0.12277112
1603783131.97054768,-0.00488000,-0.00195200,1.02248200,-0.08776454,0.09043552,0.17930500,0.27622000,0.25690000,0.18591055,-1.57278574,-0.12145571
1603783132.03297019,-0.00475800,-0.00158600,1.02565400,-0.16272098,0.02869349,0.07430500,0.13622000,-0.09310000,0.18664133,-1.57746273,-0.12657118
