
timestamp,ax,ay,az,roll,pitch,wx,wy,wz,mx,my,mz
1604404754.93609881,0.00463600,-0.00646600,1.02419000,-0.09731252,-0.03661556,-0.06462750,0.04380250,0.06721750,-0.36787489,0.94562993,0.58930137
1604404754.99923897,0.00451400,-0.00585600,1.02406800,-0.02841568,-0.02940690,0.21537250,-0.37619750,-0.17778250,-0.36553639,0.94694534,0.58652441
1604404755.06101322,0.00341600,-0.00585600,1.02370200,-0.06127940,0.03290790,0.18037250,-0.09619750,-0.07278250,-0.36553639,0.94694534,0.58652441
1604404755.12263918,0.00610000,-0.00439200,1.02284800,0.01959705,-0.09076043,0.49537250,-0.97119750,-0.24778250,-0.37152879,0.94402222,0.59105525
1604404755.18424964,0.00695400,-0.00707600,1.02699600,-0.18359095,-0.03503635,-0.16962750,1.05880250,0.13721750,-0.37152879,0.94402222,0.59105525
1604404755.24585342,0.00317200,-0.00280600,1.02089600,0.27240155,0.04711279,0.11037250,0.18380250,-0.07278250,-0.36699795,0.94636071,0.59047062
1604404755.30747223,0.00475800,-0.00500200,1.02370200,0.02611554,-0.04327476,-0.09962750,0.07880250,0.13721750,-0.37152879,0.94606840,0.59163987
1604404755.36909771,0.00646600,-0.00854000,1.02358000,-0.21578449,-0.14089053,-0.13462750,0.32380250,0.06721750,-0.37152879,0.94606840,0.59163987
1604404755.43072033,0.00610000,-0.00488000,1.02297000,-0.00770728,0.00493836,0.00537250,0.14880250,0.06721750,-0.36685180,0.94212219,0.59383221
1604404755.49233150,0.00634400,-0.00524600,1.02101800,-0.16568704,0.09352117,0.07537250,-0.16619750,-0.03778250,-0.36685180,0.94212219,0.59383221
1604404755.55393529,0.00561200,-0.00305000,1.02358000,0.05300878,-0.24276853,-0.20462750,0.11380250,-0.00278250,-0.36802105,0.93919906,0.58462438
1604404755.61555076,0.00488000,-0.00536800,1.02431200,-0.03760507,-0.05205838,0.14537250,-0.23619750,-0.10778250,-0.36977492,0.94387606,0.59543993
1604404755.67780805,0.00768600,-0.00634400,1.02370200,-0.08935565,-0.20646551,-0.51962750,0.84880250,0.27721750,-0.36977492,0.94387606,0.59543993
1604404755.74087954,0.00573400,-0.00597800,1.02419000,-0.35461353,-0.09673769,0.11037250,-0.16619750,-0.00278250,-0.36787489,0.94358375,0.59120140
1604404755.80378985,0.00536800,-0.00658800,1.02333600,-0.00119080,-0.07741569,0.00537250,-0.16619750,0.03221750,-0.36787489,0.94358375,0.59120140
1604404755.86678696,0.00463600,-0.00451400,1.02309200,-0.09428784,-0.18475579,-0.30962750,0.56880250,0.13721750,-0.36875183,0.94577609,0.59032447
1604404755.92985535,0.00524600,-0.00549000,1.02236000,0.00007492,0.05337805,-0.13462750,0.35880250,0.48721750,-0.37269804,0.94621456,0.59733996
1604404755.99281907,0.00463600,-0.00451400,1.02297000,-0.31386577,0.02589310,0.28537250,-0.34119750,0.06721750,-0.37269804,0.94621456,0.59733996
1604404756.05578685,0.00634400,-0.00549000,1.01979800,-0.04967565,-0.20821645,-0.20462750,1.40880250,0.45221750,-0.37094417,0.94592224,0.59836305
1604404756.11872458,0.00475800,-0.00610000,1.02223800,-0.17884336,-0.05675329,-0.02962750,-0.83119750,-0.49278250,-0.37138264,0.94168372,0.59163987
1604404756.18180013,0.00512400,-0.00561200,1.02736200,-0.23105630,0.01268238,-0.06462750,0.32380250,-0.00278250,-0.37138264,0.94168372,0.59163987
1604404756.24476051,0.00439200,-0.00524600,1.02101800,-0.02876328,-0.15978105,0.14537250,-0.41119750,0.03221750,-0.36831336,0.94899152,0.59690149
1604404756.30783105,0.00573400,-0.00610000,1.02699600,-0.07469396,-0.09629416,-0.48462750,0.56880250,0.31221750,-0.36831336,0.94899152,0.59690149
1604404756.37095070,0.00646600,-0.00414800,1.02467800,0.03494385,-0.13598021,0.42537250,-0.51619750,-0.49278250,-0.37065186,0.94826074,0.59237065
1604404756.43396282,0.00475800,-0.00378200,1.02284800,0.05527008,-0.04103139,0.07537250,0.04380250,0.06721750,-0.37313651,0.94796843,0.59222450
1604404756.49694943,0.00488000,-0.00597800,1.02419000,-0.06580288,-0.04694881,-0.30962750,0.49880250,0.13721750,-0.37313651,0.94796843,0.59222450
1604404756.56007099,0.00561200,-0.00463600,1.02467800,0.27242650,-0.08979148,-0.20462750,0.56880250,0.13721750,-0.37532885,0.94285297,0.59017831
1604404756.62302470,0.00463600,-0.00549000,1.02333600,-0.21041844,-0.03482049,0.28537250,-0.44619750,-0.17778250,-0.37532885,0.94285297,0.59017831
1604404756.68598342,0.00512400,-0.00488000,1.02321400,-0.15368209,0.24388324,0.18037250,-0.44619750,-0.07278250,-0.36904414,0.94752996,0.58623210
1604404756.74899650,0.00597800,-0.00524600,1.02419000,0.03850307,-0.20998309,-0.16962750,0.32380250,0.52221750,-0.37167495,0.94431453,0.59090909
1604404756.81202483,0.00475800,-0.00451400,1.02272600,0.12050249,-0.48124841,-0.06462750,0.11380250,-0.07278250,-0.37167495,0.94431453,0.59090909
1604404756.87497711,0.00414800,-0.00524600,1.02565400,0.02027224,-0.17167951,-0.16962750,0.84880250,0.20721750,-0.36919030,0.94533762,0.59514762
1604404756.93788886,0.00536800,-0.00671000,1.01565000,-0.16106691,-0.31319982,-0.09962750,-0.79619750,-0.24778250,-0.37152879,0.94723765,0.59061678
1604404757.00090265,0.00195200,-0.00463600,1.02065200,0.14918994,-0.18731601,-0.02962750,-0.34119750,-0.03778250,-0.37152879,0.94723765,0.59061678
1604404757.06394649,0.00536800,-0.00805200,1.02382400,-0.18498413,0.01195213,-0.16962750,0.14880250,0.10221750,-0.37328267,0.94533762,0.59003215
1604404757.12691045,0.00622200,-0.00536800,1.02480000,-0.03450047,-0.06287767,0.42537250,-0.58619750,-0.24778250,-0.37328267,0.94533762,0.59003215
1604404757.19001865,0.00390400,-0.00561200,1.02236000,-0.04717528,0.00600307,-0.30962750,0.28880250,0.06721750,-0.36831336,0.94811459,0.58930137
1604404757.25297070,0.00524600,-0.00305000,1.02455600,0.09545798,-0.06907392,0.32037250,-0.65619750,-0.21278250,-0.37620579,0.94694534,0.58857059
1604404757.31597829,0.00671000,-0.00573400,1.02577600,-0.05400833,-0.15043169,-0.44962750,0.95380250,0.27721750,-0.37620579,0.94694534,0.58857059
1604404757.37894559,0.00561200,-0.00402600,1.02541000,-0.06252438,-0.09087069,0.14537250,-0.41119750,-0.07278250,-0.37269804,0.94636071,0.58287051
1604404757.44199562,0.00854000,-0.00500200,1.02480000,-0.11789129,-0.25578845,-0.34462750,0.56880250,0.20721750,-0.37269804,0.94665303,0.58769366
1604404757.50496531,0.00475800,-0.00732000,1.02382400,-0.08634586,0.12206867,0.18037250,-0.09619750,-0.07278250,-0.36685180,0.94665303,0.58769366
1604404757.56792426,0.00524600,-0.00500200,1.02358000,-0.36331600,0.24388256,0.28537250,-0.48119750,-0.63278250,-0.37284420,0.94197603,0.59412452
1604404757.63138509,0.00756400,-0.00744200,1.01003800,-0.24643209,-0.69673109,-0.13462750,-0.02619750,-0.10778250,-0.37284420,0.94197603,0.59412452
1604404757.69452834,0.00573400,-0.00366000,1.01821200,0.22442412,-0.10592419,-0.09962750,0.42880250,-0.07278250,-0.37255189,0.94460684,0.58637825
1604404757.75761247,0.00524600,-0.00902800,1.02126200,-0.24086957,0.13461923,0.60037250,-1.11119750,-0.17778250,-0.37284420,0.94533762,0.58623210
1604404757.82517242,0.00744200,-0.00378200,1.01870000,0.05290674,-0.23613065,0.25037250,-0.44619750,-0.14278250,-0.37284420,0.94533762,0.58623210
1604404757.88814998,0.00439200,-0.00268400,1.02040800,0.11490793,0.17564309,-0.30962750,0.35880250,0.03221750,-0.37269804,0.94153756,0.59017831
1604404757.95136833,0.00183000,-0.00512400,1.02382400,-0.02147745,0.12106270,-0.06462750,0.39380250,-0.10778250,-0.37269804,0.94153756,0.59266296
1604404758.01385641,0.00597800,-0.00378200,1.02370200,0.05229044,-0.11359478,-0.34462750,0.77880250,0.31221750,-0.36845951,0.94957615,0.59266296
1604404758.07722497,0.00488000,-0.00658800,1.02297000,-0.10385050,-0.05008148,0.42537250,-0.93619750,-0.28278250,-0.37357498,0.94709149,0.58564747
1604404758.14000463,0.00573400,-0.00500200,1.02431200,-0.08667390,-0.09481860,0.35537250,-0.44619750,-0.24778250,-0.37357498,0.94709149,0.58564747
1604404758.20320296,0.00427000,-0.00536800,1.02260400,0.10854726,-0.01541977,0.04037250,0.04380250,-0.21278250,-0.36772873,0.94372990,0.58915522
1604404758.26619291,0.00561200,-0.00488000,1.02272600,-0.19791842,-0.03543585,0.32037250,-0.48119750,-0.10778250,-0.36758258,0.94577609,0.59397837
1604404758.32879472,0.00414800,-0.00317200,1.02309200,0.14307190,-0.02829736,-0.34462750,0.74380250,0.48721750,-0.36758258,0.94577609,0.59397837
1604404758.39218473,0.00536800,-0.00451400,1.02553200,0.08725377,-0.09196621,-0.20462750,0.25380250,0.06721750,-0.36948261,0.94533762,0.59076293
1604404758.45475006,0.00488000,-0.00622200,1.02480000,0.02533898,0.07256529,0.00537250,-0.48119750,-0.21278250,-0.36948261,0.94533762,0.59076293
1604404758.51833820,0.00390400,-0.00414800,1.03138800,0.04196253,0.33203167,0.00537250,0.04380250,0.13721750,-0.36875183,0.94826074,0.58155510
1604404758.58094978,0.00536800,-0.00573400,1.02223800,0.00578009,-0.26188799,-0.20462750,0.11380250,0.06721750,-0.36919030,0.94343759,0.59193218
1604404758.64398241,0.00475800,-0.00146400,1.02565400,0.18383227,-0.11034806,-0.58962750,0.77880250,0.41721750,-0.36919030,0.94343759,0.59193218
1604404758.70704460,0.00378200,-0.00512400,1.02321400,-0.02130059,-0.15212742,0.11037250,-0.20119750,-0.24778250,-0.37795966,0.94270681,0.59266296
1604404758.76971459,0.00500200,-0.00610000,1.02492200,-0.07538662,0.06673545,-0.58962750,1.05880250,0.52221750,-0.34054370,0.94446068,0.58345513
1604404758.83234286,0.00561200,-0.00341600,1.02614200,0.07488071,-0.06250537,-0.72962750,1.09380250,0.52221750,-0.37357498,0.94446068,0.58345513
1604404758.89536786,0.00524600,-0.00658800,1.02382400,-0.10305720,-0.07680297,0.88037250,-1.28619750,-0.45778250,-0.37211342,0.94212219,0.59237065
1604404758.95841098,0.00622200,-0.00524600,1.02699600,-0.02621899,-0.12253294,0.25037250,-0.16619750,-0.17778250,-0.37211342,0.94212219,0.59237065
1604404759.02138853,0.00683200,-0.00500200,1.02553200,-0.01638560,-0.16157634,-0.13462750,-0.02619750,-0.00278250,-0.36422099,0.94460684,0.58798597
1604404759.08440876,0.00512400,-0.00585600,1.02638600,-0.04769420,-0.06246866,-0.06462750,0.07880250,0.13721750,-0.37489038,0.94796843,0.58725519
1604404759.14761567,0.00427000,-0.00622200,1.02370200,0.05361264,-0.01576137,-0.06462750,0.11380250,0.06721750,-0.37489038,0.94796843,0.58725519
1604404759.21080542,0.00536800,-0.00500200,1.02516600,0.23145406,-0.37079492,-0.20462750,0.42880250,0.55721750,-0.37284420,0.94752996,0.59500146
1604404759.27381063,0.00500200,-0.00488000,1.02236000,0.10923687,-0.01437036,0.04037250,-0.02619750,0.31221750,-0.37284420,0.94752996,0.59500146
1604404759.33678269,0.00622200,-0.00366000,1.02541000,0.32031457,-0.41231466,-0.20462750,0.32380250,0.55721750,-0.37006723,0.94665303,0.59076293
1604404759.39985275,0.00512400,-0.00780800,1.03151000,-0.09353764,0.37945224,0.04037250,-0.27119750,-0.21278250,-0.36729027,0.94051447,0.58287051
1604404759.46276450,0.00549000,-0.00305000,1.01455200,0.10715400,-0.26556887,-0.02962750,-1.11119750,-0.24778250,-0.36729027,0.94051447,0.58287051
1604404759.52573466,0.00451400,-0.00536800,1.02492200,-0.03446339,-0.11058232,0.74037250,-1.21619750,-0.63278250,-0.36992108,0.94562993,0.58769366
1604404759.58872461,0.00817400,-0.00744200,1.02650800,-0.14976157,0.06697915,0.63537250,-1.04119750,-0.31778250,-0.36816720,0.94519146,0.59076293
1604404759.65172601,0.00573400,-0.00280600,1.02199400,0.10830529,-0.13890054,-0.86962750,1.30380250,0.45221750,-0.36816720,0.94519146,0.59076293
1604404759.71471691,0.00402600,-0.00610000,1.02248200,-0.07356851,-0.00026467,-0.34462750,0.63880250,0.45221750,-0.36670564,0.94767612,0.58403975
1604404759.77774072,0.00414800,-0.00524600,1.02370200,-0.02754148,-0.00820190,0.81037250,-1.25119750,-0.28278250,-0.36670564,0.94767612,0.58403975
1604404759.84082389,0.00671000,-0.00390400,1.02248200,0.04724590,-0.15172666,0.04037250,-0.16619750,0.03221750,-0.36904414,0.94416837,0.58418591
1604404759.90368223,0.00439200,-0.00414800,1.02309200,0.10843494,-0.02242461,-0.30962750,0.28880250,0.13721750,-0.37035954,0.95030693,0.59061678
1604404759.96673465,0.00463600,-0.00439200,1.02321400,0.10087428,-0.03724319,-0.16962750,0.32380250,0.27721750,-0.37035954,0.95030693,0.59061678
1604404760.02972078,0.00451400,-0.00695400,1.02211600,-0.01404173,0.29862416,-0.02962750,0.18380250,-0.14278250,-0.37269804,0.94504531,0.59047062
1604404760.09278750,0.00427000,-0.00451400,1.02297000,0.04064096,-0.30134769,0.18037250,-0.20119750,-0.49278250,-0.37269804,0.94504531,0.59047062
1604404760.15582728,0.00610000,-0.00597800,1.02443400,-0.11946627,-0.01707902,0.00537250,0.00880250,-0.45778250,-0.37035954,0.94314528,0.59587840
1604404760.21878123,0.00427000,-0.00671000,1.02516600,-0.16394290,0.27814129,0.07537250,-0.09619750,0.20721750,-0.36612102,0.93934522,0.58988600
1604404760.28191280,0.00610000,-0.00561200,1.02480000,-0.21865794,0.03943711,-0.02962750,1.30380250,0.66221750,-0.36612102,0.93934522,0.58988600
1604404760.34495306,0.00451400,-0.00854000,1.02577600,-0.21138539,0.15545294,-0.20462750,0.18380250,0.10221750,-0.37167495,0.94270681,0.58257819
1604404760.40793514,0.00524600,-0.00427000,1.02602000,0.02717135,-0.13747641,-0.58962750,1.05880250,0.38221750,-0.37503654,0.94519146,0.59120140
1604404760.47103047,0.00500200,-0.00488000,1.02419000,-0.00738044,-0.05622423,-0.65962750,0.95380250,0.45221750,-0.37503654,0.94519146,0.59120140
1604404760.53397560,0.00646600,-0.00768600,1.02492200,-0.16099023,-0.13529322,0.35537250,-0.58619750,-0.31778250,-0.37547501,0.94416837,0.59061678
1604404760.59698439,0.00317200,-0.00500200,1.02638600,-0.01494239,0.04568166,-0.51962750,0.74380250,0.38221750,-0.37547501,0.94416837,0.59061678
1604404760.66015458,0.00573400,-0.00646600,1.02358000,-0.13897524,-0.09870385,-0.16962750,0.11380250,-0.03778250,-0.36436714,0.94197603,0.58813213
1604404760.72317743,0.00341600,-0.00463600,1.02492200,0.38134828,0.03297316,-0.06462750,0.07880250,-0.10778250,-0.36787489,0.94606840,0.58973984
1604404760.78606296,0.00561200,-0.00671000,1.02345800,0.12191491,-0.09117531,-0.41462750,0.53380250,0.10221750,-0.36787489,0.94606840,0.58973984
1604404760.84901452,0.00463600,-0.00488000,1.02443400,-0.12280279,0.14863787,0.14537250,-0.27119750,-0.52778250,-0.37342882,0.94446068,0.58155510
1604404760.91198039,0.00463600,-0.00451400,1.02297000,0.01939686,-0.26884349,-0.30962750,0.39380250,0.38221750,-0.37342882,0.94446068,0.58155510
1604404760.97496724,0.00756400,-0.00646600,1.02345800,-0.14160950,-0.03178110,-0.02962750,0.07880250,-0.21278250,-0.37196726,0.94738381,0.58403975
1604404761.03787422,0.00439200,-0.00597800,1.02650800,-0.04762235,0.38702187,0.04037250,0.46380250,0.38221750,-0.37065186,0.94650687,0.58506285
1604404761.10094810,0.00512400,-0.00634400,1.01748000,0.00456830,-0.33972089,-0.06462750,0.46380250,0.17221750,-0.37065186,0.94650687,0.58506285
1604404761.16402102,0.00463600,-0.00256200,1.02358000,0.12220783,-0.19979753,0.74037250,-1.04119750,-0.59778250,-0.36758258,0.94752996,0.59193218
1604404761.22701859,0.00451400,-0.00353800,1.01955400,0.06679269,-0.07806548,-0.58962750,0.81380250,0.34721750,-0.36977492,0.95206080,0.58827828
1604404761.29010653,0.00780800,-0.00744200,1.02504400,-0.15034429,-0.21282051,-0.13462750,0.07880250,0.10221750,-0.36977492,0.95206080,0.58827828
1604404761.35305333,0.00512400,-0.00585600,1.02297000,-0.06197800,-0.06304754,-0.37962750,0.56880250,0.13721750,-0.36655949,0.94679918,0.58360129
1604404761.41612625,0.00280600,-0.00524600,1.02443400,-0.02740332,0.06686532,-0.34462750,0.42880250,-0.03778250,-0.36655949,0.94679918,0.58360129
1604404761.47913027,0.00646600,-0.00561200,1.02467800,-0.22764358,-0.13949527,-0.27462750,0.32380250,0.10221750,-0.37123648,0.95074540,0.58520900
1604404761.54212475,0.00536800,-0.00439200,1.02394600,-0.25699094,1.66258599,0.18037250,-0.23619750,-0.24778250,-0.37035954,0.94475300,0.58257819
1604404761.60503078,0.00414800,-0.00536800,1.02443400,0.00458915,-0.00995329,-0.09962750,0.28880250,-0.00278250,-0.37035954,0.94475300,0.58257819
1604404761.66800141,0.00561200,-0.00427000,1.02358000,-0.04120807,-0.17186562,0.07537250,-0.02619750,0.38221750,-0.36977492,0.94840690,0.58140894
1604404761.73109269,0.00183000,-0.00524600,1.05493400,-0.21363936,0.13584532,0.04037250,-0.34119750,-0.59778250,-0.36977492,0.94840690,0.59266296
1604404761.79409766,0.00573400,-0.00573400,1.02663000,-0.26315802,-0.17469829,0.04037250,-0.30619750,-0.52778250,-0.36919030,0.94782227,0.59266296
1604404761.85709143,0.00793000,-0.00488000,1.01211200,-0.10041711,-0.08027915,0.04037250,-0.97119750,-0.49278250,-0.37138264,0.94679918,0.58900906
1604404761.92017341,0.00390400,-0.00488000,1.02223800,-0.16517048,0.01162321,-0.09962750,1.26880250,0.66221750,-0.37138264,0.94679918,0.58900906
1604404761.98320222,0.00768600,-0.00707600,1.02467800,-0.13002368,-0.30847269,0.74037250,-1.07619750,-0.49278250,-0.36787489,0.94899152,0.58550132
1604404762.04628682,0.00683200,-0.00414800,1.02467800,0.03368269,-0.21298431,0.18037250,-0.23619750,-0.21278250,-0.37006723,0.95089155,0.58783981
1604404762.10935545,0.00207400,-0.00561200,1.02480000,-0.05009941,0.10691880,0.49537250,-0.76119750,-0.42278250,-0.37006723,0.95089155,0.58783981
1604404762.17239237,0.00695400,-0.00549000,1.02516600,-0.04000816,-0.16352734,-0.02962750,0.11380250,0.24221750,-0.36977492,0.94621456,0.58023970
1604404762.23540521,0.00536800,-0.00658800,1.02431200,-0.10148251,-0.07551991,0.11037250,-0.27119750,0.13721750,-0.36977492,0.94621456,0.58023970
1604404762.29833269,0.00366000,-0.00622200,1.02309200,0.06128008,0.01926120,0.11037250,-0.13119750,-0.14278250,-0.36729027,0.94694534,0.58813213
1604404762.36137342,0.00866200,-0.00805200,1.02455600,-0.18957422,-0.25876912,0.07537250,-0.27119750,0.03221750,-0.37094417,0.94855305,0.59032447
1604404762.42436147,0.00451400,-0.00463600,1.02602000,-0.17060532,0.27130592,0.25037250,-0.41119750,-0.07278250,-0.37094417,0.94855305,0.59032447
1604404762.48738050,0.00366000,-0.00719800,1.02455600,-0.02116720,-0.02904525,-0.20462750,0.00880250,0.34721750,-0.37357498,0.94899152,0.58506285
1604404762.55051899,0.00561200,-0.00561200,1.05591000,-0.08423858,0.26396224,-0.06462750,0.21880250,0.45221750,-0.36802105,0.95176849,0.58374744
1604404762.61353350,0.00463600,-0.00341600,1.01882200,0.06665969,-0.42130311,-0.16962750,0.35880250,-0.00278250,-0.36802105,0.95176849,0.58374744
1604404762.67655706,0.00329400,-0.00793000,1.02602000,-0.29301900,0.15547002,0.04037250,-0.79619750,-0.14278250,-0.37372113,0.94855305,0.59061678
1604404762.73966813,0.00561200,-0.00378200,1.02955800,0.05514437,0.03349358,-0.34462750,0.49880250,0.34721750,-0.37372113,0.94855305,0.59061678
1604404762.80268693,0.00549000,-0.00854000,1.02467800,-0.21189489,0.05987932,0.42537250,-0.58619750,-0.49278250,-0.36729027,0.94752996,0.59120140
1604404762.86571813,0.00610000,-0.00622200,1.02431200,-0.07211184,-0.10750857,-0.41462750,0.60380250,0.06721750,-0.36641333,0.94855305,0.58550132
1604404762.92865992,0.00683200,-0.00512400,1.02492200,-0.02357595,-0.16199268,0.42537250,-0.83119750,-0.42278250,-0.36641333,0.94855305,0.58550132
1604404762.99163437,0.00256200,-0.00536800,1.02443400,-0.03393273,0.08063003,-0.41462750,0.60380250,0.06721750,-0.36743642,0.94168372,0.57863198
1604404763.05460715,0.00597800,-0.00341600,1.02419000,0.08748872,-0.11210371,-0.13462750,0.28880250,-0.00278250,-0.36743642,0.94168372,0.57863198
1604404763.11757159,0.00658800,-0.00597800,1.02345800,-0.25355514,-0.14528578,0.39037250,-0.58619750,-0.17778250,-0.36465946,0.94650687,0.58433207
1604404763.18063879,0.00170800,-0.00683200,1.02358000,0.06108455,0.12814809,-0.09962750,0.14880250,-0.03778250,-0.36889798,0.94723765,0.58550132
1604404763.24356198,0.00756400,-0.00622200,1.02345800,0.01270827,-0.26171450,-0.20462750,0.21880250,0.10221750,-0.36889798,0.94723765,0.58550132
1604404763.30646539,0.00427000,-0.00707600,1.02541000,-0.04142778,-0.15850227,-0.23962750,0.32380250,0.66221750,-0.36729027,0.95323005,0.58170126
1604404763.36953092,0.00549000,-0.00305000,1.02382400,0.23120697,-0.19617201,-0.02962750,0.14880250,-0.24778250,-0.36626717,0.95425314,0.58652441
1604404763.43254685,0.00658800,-0.00439200,1.03212000,-0.13396021,0.24391206,-0.06462750,-0.23619750,-0.07278250,-0.36626717,0.95425314,0.58652441
1604404763.49558091,0.00524600,-0.00341600,1.02736200,-0.01334425,0.13514511,-0.09962750,1.58380250,0.73221750,-0.36305174,0.95016077,0.58009354
1604404763.55859280,0.00634400,-0.00719800,1.02565400,-0.13647528,-0.02856139,0.95037250,-1.35619750,-0.59778250,-0.36305174,0.95016077,0.58009354
1604404763.62156892,0.00414800,-0.00793000,1.02577600,-0.17731146,-0.02853007,-0.44962750,0.98880250,0.31221750,-0.37050570,0.94855305,0.58623210
1604404763.68461037,0.00451400,-0.00048800,1.02333600,0.23829120,0.03233648,0.63537250,-1.00619750,-0.42278250,-0.36933645,0.94913768,0.58126279
1604404763.74761009,0.00707600,-0.01049200,1.02333600,-0.32411025,-0.17412213,-0.72962750,0.98880250,0.10221750,-0.36933645,0.94913768,0.58126279
1604404763.81088185,0.00573400,-0.00366000,1.02321400,0.06311144,-0.09365972,0.60037250,-0.72619750,-0.14278250,-0.36743642,0.94548378,0.58345513
1604404763.87387180,0.00390400,-0.00536800,1.02455600,-0.05348260,0.00633839,-0.02962750,-0.02619750,0.03221750,-0.36743642,0.94548378,0.58345513
1604404763.93686581,0.00561200,-0.00524600,1.02309200,-0.10253033,-0.09000875,0.32037250,-0.62119750,-0.28278250,-0.36933645,0.94533762,0.58360129
1604404763.99996471,0.00500200,-0.00427000,1.02480000,0.00480617,0.13437152,-0.02962750,-0.06119750,-0.10778250,-0.36685180,0.94636071,0.58067816
1604404764.06302214,0.00707600,-0.00573400,1.02577600,-0.10363349,0.10735112,-0.13462750,0.11380250,0.45221750,-0.36685180,0.94636071,0.58067816
1604404764.12598705,0.00549000,-0.00585600,1.02370200,0.10719102,-0.21723745,-0.02962750,0.07880250,-0.42278250,-0.37459807,0.94577609,0.58067816
1604404764.18893123,0.00329400,-0.00536800,1.00808600,-0.11572301,-0.47669039,-0.09962750,0.21880250,-0.14278250,-0.37240573,0.95249927,0.58593978
1604404764.25188994,0.00719800,-0.00573400,1.02406800,-0.09614169,-0.13816056,0.04037250,-1.18119750,-0.70278250,-0.37240573,0.95249927,0.58593978
1604404764.31492710,0.00597800,-0.00414800,1.02797200,-0.12197094,0.01960407,0.04037250,-0.76119750,-0.03778250,-0.37415960,0.95045308,0.58740134
1604404764.37786269,0.00512400,-0.00512400,1.02138400,-0.02182030,0.11409660,-0.34462750,0.35880250,0.48721750,-0.37415960,0.95045308,0.58740134
1604404764.44082594,0.00536800,-0.00817400,1.02126200,-0.19295317,-0.12546196,-0.51962750,1.05880250,0.34721750,-0.37284420,0.95045308,0.58857059
1604404764.50383115,0.00402600,-0.00597800,1.02394600,-0.06888396,-0.00167839,-0.44962750,0.84880250,0.27721750,-0.36758258,0.94621456,0.59310143
1604404764.56685090,0.00488000,-0.00488000,1.02443400,-0.00796717,-0.04998604,0.18037250,-0.09619750,-0.28278250,-0.36758258,0.94621456,0.59310143
1604404764.62991428,0.00549000,-0.00475800,1.02443400,0.00007755,-0.08279342,0.11037250,-0.16619750,-0.28278250,-0.37109032,0.94665303,0.58389360
1604404764.69285870,0.00695400,-0.00585600,1.02345800,-0.20405826,-0.16439366,0.21537250,-0.44619750,-0.03778250,-0.37109032,0.94665303,0.58389360
1604404764.75586653,0.00573400,-0.00524600,1.02443400,-0.08162370,-0.09640797,0.25037250,-0.41119750,-0.21278250,-0.36831336,0.94986846,0.58389360
1604404764.81883955,0.00366000,-0.00500200,1.02480000,-0.06042656,0.01982036,0.39037250,-0.48119750,-0.28278250,-0.36539024,0.95133002,0.58403975
1604404764.88184810,0.00512400,-0.00451400,1.02602000,-0.08409767,-0.46212594,-0.06462750,0.11380250,0.24221750,-0.36539024,0.95133002,0.58403975
1604404764.94498515,0.00475800,-0.00671000,1.02223800,-0.15039790,-0.13103715,-0.34462750,0.63880250,-0.07278250,-0.36655949,0.94826074,0.58301666
1604404765.00794840,0.00414800,-0.00427000,1.01735800,-0.15348939,-0.16115501,0.07537250,-1.07619750,-0.21278250,-0.37094417,0.94913768,0.59032447
1604404765.07103705,0.00719800,-0.00573400,1.02345800,-0.05538233,-0.07691190,0.04037250,-0.76119750,-0.24778250,-0.37094417,0.94913768,0.59032447
1604404765.13416982,0.00573400,-0.00414800,1.01894400,0.03237895,-0.25659875,-0.09962750,0.25380250,-0.24778250,-0.36451330,0.94752996,0.58097048
1604404765.19716191,0.00658800,-0.00500200,1.02297000,-0.01453872,-0.06339064,-0.23962750,0.60380250,-0.17778250,-0.36451330,0.94752996,0.58097048
1604404765.26034212,0.00634400,-0.00536800,1.02602000,-0.03414164,-0.13066214,-0.34462750,0.77880250,0.13721750,-0.37050570,0.94723765,0.58140894
1604404765.32336140,0.00451400,-0.00451400,1.02492200,0.01261111,-0.02940777,0.00537250,0.18380250,0.03221750,-0.37065186,0.94636071,0.58813213
1604404765.38632917,0.00378200,-0.00402600,1.02455600,0.04299061,0.01446411,0.07537250,-0.09619750,-0.14278250,-0.37065186,0.94636071,0.58813213
1604404765.44930983,0.00512400,-0.00671000,1.02577600,-0.08307500,-0.06355999,0.42537250,-0.86619750,-0.10778250,-0.37050570,0.94519146,0.58140894
1604404765.51229787,0.00439200,-0.00390400,1.02370200,-0.11364008,-0.02021011,0.28537250,-0.72619750,-0.21278250,-0.36378252,0.94636071,0.58213973
1604404765.57540083,0.00366000,-0.00524600,1.02443400,-0.21894863,0.16899697,0.18037250,-0.37619750,-0.17778250,-0.36378252,0.94636071,0.58213973
1604404765.63839078,0.00610000,-0.00549000,1.02504400,0.10151511,-0.50803059,-0.13462750,0.39380250,-0.31778250,-0.36480561,0.94826074,0.58140894
1604404765.70139599,0.00500200,-0.00463600,1.02614200,0.03972422,-0.21449708,-0.30962750,0.21880250,0.20721750,-0.36480561,0.94826074,0.58140894
1604404765.76437235,0.00549000,-0.00817400,1.02833800,-0.18980466,0.37993113,-0.02962750,-0.55119750,-0.10778250,-0.36495177,0.95264543,0.57717042
1604404765.82736397,0.00524600,-0.00488000,1.01943200,-0.12522006,0.27159168,-0.02962750,1.23380250,0.73221750,-0.36655949,0.94694534,0.58009354
1604404765.89045191,0.00353800,-0.00561200,1.02650800,-0.08165870,-0.24624673,-0.16962750,-0.02619750,-0.17778250,-0.36655949,0.94694534,0.58009354
1604404765.95352244,0.00573400,-0.00378200,1.02431200,0.05407466,-0.31549539,0.74037250,-0.97119750,-0.63278250,-0.36524408,0.94796843,0.58082432
1604404766.01647878,0.00524600,-0.00561200,1.02297000,-0.04870390,-0.02922539,-0.79962750,1.33880250,0.45221750,-0.36524408,0.94796843,0.58082432
1604404766.07946134,0.00414800,-0.00439200,1.02382400,0.01938979,-0.00894990,-0.48462750,0.56880250,0.20721750,-0.36539024,0.95220696,0.58374744
1604404766.14252877,0.00622200,-0.00512400,1.02358000,-0.02483359,-0.12909191,0.21537250,-0.58619750,-0.28278250,-0.36670564,0.94826074,0.58506285
1604404766.20556474,0.00524600,-0.00475800,1.02333600,0.00032941,-0.06889835,-0.02962750,0.00880250,-0.24778250,-0.36670564,0.94826074,0.58506285
1604404766.26858759,0.00475800,-0.00414800,1.02333600,0.14925775,-0.04334030,-0.44962750,0.46380250,0.20721750,-0.36495177,0.94767612,0.58403975
1604404766.33160233,0.00658800,-0.00366000,1.02419000,0.28611763,-0.14547692,-0.23962750,0.07880250,0.10221750,-0.37094417,0.95103771,0.58491669
1604404766.39462161,0.00475800,-0.00780800,1.02272600,-0.14804121,0.36599963,0.04037250,0.11380250,0.34721750,-0.37094417,0.95103771,0.58491669
1604404766.45772314,0.00658800,-0.00451400,1.02443400,0.07643148,0.02089952,-0.09962750,0.25380250,0.38221750,-0.36553639,0.94986846,0.58403975
1604404766.52080512,0.00463600,-0.00683200,1.03102200,-0.05980543,-0.12216325,0.07537250,-0.76119750,-0.45778250,-0.36553639,0.94986846,0.58403975
1604404766.58385491,0.00390400,-0.00488000,1.03041200,0.02818695,-0.10880358,-0.34462750,0.53380250,-0.03778250,-0.36743642,0.94621456,0.58506285
1604404766.64702296,0.00610000,-0.00756400,1.02748400,-0.15616828,0.00590238,-0.20462750,0.39380250,-0.17778250,-0.36480561,0.94636071,0.58550132
1604404766.70955420,0.00475800,-0.00414800,1.03053400,0.03499863,-0.14267772,-0.83462750,1.40880250,0.27721750,-0.36480561,0.94636071,0.58550132
1604404766.77221680,0.00451400,-0.00414800,1.02101800,-0.12461151,0.05929056,0.07537250,0.53380250,-0.17778250,-0.36509792,0.94884537,0.58199357
1604404766.83470201,0.00597800,-0.00573400,1.02370200,-0.16455035,-0.10414790,-0.09962750,0.56880250,0.38221750,-0.36509792,0.94884537,0.58199357
1604404766.89728427,0.00549000,-0.00707600,1.01735800,-0.05730536,-0.12680705,0.04037250,-1.07619750,-0.52778250,-0.37152879,0.95249927,0.58506285
1604404766.96015286,0.00573400,-0.00549000,1.02748400,-0.04052149,0.03311129,-0.09962750,0.77880250,-0.07278250,-0.36977492,0.95001462,0.58345513
1604404767.02265239,0.00390400,-0.00536800,1.02675200,-0.06796503,-0.15763869,0.14537250,-1.04119750,-0.21278250,-0.36977492,0.95001462,0.58345513
1604404767.08519888,0.00622200,-0.00512400,1.01565000,-0.05096766,-0.08610426,0.18037250,-0.62119750,-0.31778250,-0.37225957,0.94855305,0.58023970
1604404767.14788580,0.00524600,-0.00561200,1.01443000,0.06579660,-0.37586638,-0.02962750,-0.76119750,-0.28278250,-0.37079801,0.95147618,0.58462438
1604404767.21052790,0.00646600,-0.00610000,1.02162800,-0.02173939,-0.31690848,-0.13462750,-0.02619750,-0.00278250,-0.37079801,0.95147618,0.58462438
1604404767.27307391,0.00390400,-0.00561200,1.01809000,0.10770371,-0.22267666,-0.06462750,-0.44619750,-0.24778250,-0.36436714,0.95074540,0.58564747
1604404767.33566093,0.00512400,-0.00366000,1.02528800,-0.04117678,0.01225083,-0.02962750,1.30380250,0.52221750,-0.36436714,0.95074540,0.58564747
1604404767.39826965,0.00573400,-0.00402600,1.02699600,-0.14275167,-0.13712724,-0.02962750,0.88380250,0.41721750,-0.36860567,0.95045308,0.58243204
1604404767.46099281,0.00463600,-0.00353800,1.02968000,0.06195729,0.08103551,-0.09962750,0.56880250,0.34721750,-0.36699795,0.95191464,0.58272435
1604404767.52360845,0.00451400,-0.00561200,1.01833400,0.14206245,-0.27748039,-0.02962750,-0.27119750,-0.14278250,-0.36699795,0.95191464,0.58272435
1604404767.58623362,0.00475800,-0.00488000,1.03151000,-0.18162844,0.08129186,0.07537250,-0.41119750,-0.17778250,-0.37079801,0.94928384,0.57366267
1604404767.64876890,0.00658800,-0.00463600,1.02675200,0.04776904,-0.29379214,-0.09962750,-0.65619750,-0.28278250,-0.37079801,0.94928384,0.57366267
1604404767.71133614,0.00402600,-0.00622200,1.02187200,-0.04220363,0.35356175,0.04037250,0.60380250,0.45221750,-0.37050570,0.94431453,0.58433207
1604404767.77388215,0.00512400,-0.00658800,1.02748400,0.01390110,0.08753431,0.04037250,0.60380250,0.31221750,-0.36831336,0.94489915,0.58462438
1604404767.83647346,0.00475800,-0.00463600,1.03016800,-0.10077862,-0.26493089,0.07537250,-1.25119750,-0.42278250,-0.36831336,0.94489915,0.58462438
1604404767.89909983,0.00585600,-0.00610000,1.03090000,-0.43274730,0.37953595,0.11037250,0.00880250,0.27721750,-0.36495177,0.95410699,0.58316282
1604404767.96171737,0.00475800,-0.00378200,1.02150600,0.17666025,-0.34434827,-0.09962750,0.39380250,-0.00278250,-0.36495177,0.95410699,0.58316282
1604404768.02426004,0.00524600,-0.00500200,1.03187600,-0.14759859,-0.02026676,-0.09962750,1.16380250,0.45221750,-0.37094417,0.94928384,0.58330897
1604404768.08685732,0.00512400,-0.00390400,1.03346200,0.17092399,-0.20927667,0.04037250,0.49880250,0.10221750,-0.37167495,0.95191464,0.58097048
1604404768.14963722,0.00585600,-0.00512400,1.02772800,-0.14245005,-0.32729510,0.11037250,-1.04119750,-0.52778250,-0.37167495,0.95191464,0.58097048
1604404768.21225286,0.00317200,-0.00500200,1.01577200,0.03853486,-0.34066946,-0.13462750,-0.20119750,-0.07278250,-0.36670564,0.94928384,0.58374744
1604404768.27480769,0.00573400,-0.00427000,1.02382400,0.01300420,-0.08363344,-0.09962750,1.05880250,-0.03778250,-0.36188249,0.95337621,0.58374744
1604404768.33732224,0.00646600,-0.00463600,1.02358000,0.19732531,-0.22028453,-0.20462750,1.09380250,0.31221750,-0.36188249,0.95337621,0.58374744
1604404768.40000916,0.00463600,-0.00597800,1.01711400,0.10068830,-0.50484461,-0.16962750,0.42880250,-0.35278250,-0.36743642,0.94562993,0.58374744
1604404768.46263480,0.00524600,-0.00439200,1.02931400,-0.14862940,0.07419686,0.04037250,0.32380250,0.17221750,-0.36743642,0.94562993,0.58374744
1604404768.52517772,0.00597800,-0.00414800,1.02370200,0.15664982,-0.13054003,-0.06462750,0.00880250,0.13721750,-0.36845951,0.94212219,0.58798597
1604404768.58773637,0.00451400,-0.00536800,1.02455600,0.16239087,0.10660892,-0.09962750,0.14880250,0.80221750,-0.36495177,0.94489915,0.59047062
1604404768.65038776,0.00463600,-0.00439200,1.02541000,-0.15858500,-0.02271257,0.28537250,-0.58619750,-0.56278250,-0.36495177,0.94489915,0.59047062
1604404768.71297908,0.00524600,-0.00427000,1.02321400,-0.03629187,-0.22926619,0.00537250,-0.06119750,-0.80778250,-0.36860567,0.94329144,0.58696288
1604404768.77555919,0.00561200,-0.00585600,1.02284800,-0.00634698,0.18280094,0.07537250,0.04380250,0.48721750,-0.36860567,0.94329144,0.58696288
1604404768.83817530,0.00427000,-0.00414800,1.02248200,0.05773839,-0.53863567,-0.23962750,0.32380250,0.66221750,-0.36816720,0.94504531,0.58579363
1604404768.90081763,0.00512400,-0.00573400,1.05505600,0.08271323,0.04069435,-0.06462750,0.07880250,0.31221750,-0.36568255,0.94402222,0.59061678
1604404768.96344113,0.00585600,-0.00427000,1.02431200,-0.07020380,-0.02312757,-0.02962750,0.28880250,0.20721750,-0.36568255,0.94402222,0.59061678
1604404769.02596188,0.00561200,-0.00402600,1.02333600,0.12283769,-0.21153598,0.11037250,-0.16619750,-0.73778250,-0.36714411,0.94533762,0.58199357
1604404769.08861136,0.00549000,-0.00597800,1.02358000,-0.08432535,-0.13320587,-0.06462750,0.32380250,0.62721750,-0.36977492,0.94489915,0.58900906
1604404769.15127254,0.00597800,-0.00390400,1.02467800,-0.06916547,0.14844079,0.21537250,-0.27119750,-0.28278250,-0.36977492,0.94489915,0.58900906
1604404769.21383500,0.00463600,-0.00524600,1.02419000,-0.01570456,-0.30474004,-0.20462750,0.42880250,0.34721750,-0.37532885,0.94402222,0.58330897
1604404769.27650046,0.00549000,-0.00524600,1.02370200,-0.04241170,-0.31032108,-0.09962750,0.25380250,0.06721750,-0.37532885,0.94402222,0.58330897
1604404769.33903050,0.00475800,-0.00475800,1.02175000,-0.05055125,-0.03758448,0.07537250,-0.13119750,-0.59778250,-0.36875183,0.95293774,0.58696288
1604404769.40162826,0.00524600,-0.00732000,1.02406800,-0.20262066,0.05394639,0.04037250,-0.09619750,0.03221750,-0.37152879,0.94738381,0.57497808
1604404769.46416187,0.00536800,-0.00414800,1.02358000,-0.12192719,0.16240468,0.18037250,-0.41119750,-0.07278250,-0.37152879,0.94738381,0.57497808
1604404769.52671576,0.00268400,-0.00451400,1.02431200,0.03256622,0.16190600,0.14537250,-0.23619750,-0.35278250,-0.36992108,0.94811459,0.58316282
1604404769.58936286,0.00488000,-0.00402600,1.02187200,0.25876286,-0.18746425,0.07537250,-0.16619750,0.41721750,-0.36992108,0.94811459,0.58316282
1604404769.65212584,0.00573400,-0.00488000,1.02394600,0.02410995,-0.43882842,-0.20462750,0.32380250,-0.24778250,-0.36685180,0.94577609,0.58447822
1604404769.71482897,0.00500200,-0.00658800,1.05603200,-0.26256245,-0.03371894,-0.13462750,0.18380250,0.52221750,-0.36933645,0.94504531,0.58433207
1604404769.77738523,0.00536800,-0.00366000,1.02516600,-0.24430108,0.06042408,0.04037250,0.04380250,0.41721750,-0.36933645,0.94504531,0.58433207
1604404769.84005165,0.00585600,-0.00500200,1.02565400,-0.12807143,0.11499288,-0.09962750,0.25380250,0.66221750,-0.36524408,0.94592224,0.57965507
1604404769.90264750,0.00622200,-0.00549000,1.02467800,0.07999122,0.12734629,-0.06462750,0.00880250,0.24221750,-0.36524408,0.94592224,0.57965507
1604404769.96530461,0.00536800,-0.00353800,1.02589800,-0.01394117,0.07359023,0.18037250,-0.34119750,0.45221750,-0.36378252,0.94197603,0.58316282
1604404770.02784538,0.00341600,-0.00512400,1.02480000,0.12859748,-0.29022262,-0.23962750,0.46380250,0.45221750,-0.36626717,0.94738381,0.58170126
1604404770.09054637,0.00500200,-0.00500200,1.02528800,0.11471938,-0.43486715,-0.23962750,0.28880250,-0.38778250,-0.36626717,0.94738381,0.58170126
1604404770.15308952,0.00463600,-0.00536800,1.02443400,0.01936177,-0.07738024,-0.09962750,0.18380250,0.59221750,-0.37386729,0.94504531,0.58243204
1604404770.21564794,0.00561200,-0.00536800,1.02382400,-0.14455024,-0.22075011,0.14537250,-0.13119750,-0.77278250,-0.36948261,0.94256065,0.58783981
1604404770.27820754,0.00475800,-0.00671000,1.02260400,0.02099865,-0.13653420,-0.09962750,0.11380250,0.62721750,-0.36948261,0.94256065,0.58783981
1604404770.34082603,0.00463600,-0.00512400,1.02297000,-0.22249032,-0.03764166,0.00537250,-0.02619750,0.38221750,-0.36626717,0.95396083,0.58301666
1604404770.40331936,0.00366000,-0.00536800,1.02431200,-0.05594555,-0.35111351,-0.37962750,0.53380250,0.06721750,-0.36626717,0.95396083,0.58301666
1604404770.46589184,0.00585600,-0.00475800,1.02345800,-0.18263663,0.30509418,0.25037250,-0.37619750,-0.14278250,-0.36334405,0.94577609,0.58725519
1604404770.52839661,0.00622200,-0.00402600,1.02419000,0.03793252,-0.32146703,-0.34462750,0.53380250,0.13721750,-0.36992108,0.94752996,0.58330897
1604404770.59103274,0.00622200,-0.00585600,1.02553200,0.01218992,-0.12572009,-0.16962750,0.28880250,0.06721750,-0.36992108,0.94752996,0.58330897
1604404770.65370536,0.00488000,-0.00488000,1.02467800,0.10212694,0.03967214,0.21537250,-0.27119750,-0.17778250,-0.36451330,0.94752996,0.58360129
1604404770.71694827,0.00549000,-0.00500200,1.02541000,-0.03574089,-0.42021885,-0.13462750,0.28880250,0.48721750,-0.36451330,0.94752996,0.58360129
1604404770.77943540,0.00500200,-0.00561200,1.02528800,-0.07740445,-0.46931467,-0.13462750,0.25380250,0.13721750,-0.36363636,0.95016077,0.58228588
1604404770.84288955,0.00610000,-0.00475800,1.03431600,-0.07903960,-0.19539669,-0.02962750,0.77880250,0.45221750,-0.36495177,0.95074540,0.58287051
1604404770.90540314,0.00524600,-0.00622200,1.02138400,-0.23394800,-0.26912339,0.00537250,-0.02619750,-0.10778250,-0.36495177,0.95074540,0.58287051
1604404770.96895313,0.00402600,-0.00353800,1.02138400,0.06715663,-0.36494238,-0.16962750,0.18380250,-0.00278250,-0.37182110,0.94913768,0.58316282
1604404771.03151655,0.00622200,-0.00573400,1.02809400,-0.04451338,-0.09313078,0.42537250,-0.65619750,-0.28278250,-0.36524408,0.94928384,0.58097048
1604404771.09467387,0.00573400,-0.00427000,1.02663000,0.02731155,-0.07598555,-0.27462750,0.42880250,0.06721750,-0.36524408,0.94928384,0.58097048
1604404771.15771770,0.00475800,-0.00585600,1.02321400,-0.06229103,-0.04282726,-0.06462750,0.07880250,0.20721750,-0.36582871,0.95001462,0.58930137
1604404771.22037506,0.00634400,-0.00475800,1.02504400,-0.00001587,-0.13057896,0.28537250,-0.48119750,-0.31778250,-0.36582871,0.95001462,0.58930137
1604404771.28376675,0.00622200,-0.00488000,1.02419000,-0.00803054,-0.12530244,0.39037250,-0.48119750,-0.17778250,-0.36319790,0.95162233,0.58330897
1604404771.34627700,0.00390400,-0.00439200,1.02406800,1.77267814,0.00441029,-0.51962750,0.67380250,0.13721750,-0.37006723,0.94592224,0.58009354
1604404771.40985417,0.00549000,-0.00536800,1.02504400,0.06028095,-0.08440517,0.11037250,-0.09619750,0.03221750,-0.37006723,0.94592224,0.58009354
1604404771.47133636,0.00390400,-0.00573400,1.02443400,-0.05546096,0.00499144,0.32037250,-0.44619750,-0.17778250,-0.36787489,0.94095294,0.58696288
1604404771.53296185,0.00585600,-0.00536800,1.02467800,-0.03453177,-0.19933938,-0.02962750,0.21880250,-0.10778250,-0.36787489,0.94095294,0.58696288
1604404771.59456539,0.00524600,-0.00671000,1.02675200,0.04095611,-0.10998873,0.04037250,-0.13119750,-0.14278250,-0.36085940,0.94767612,0.58667056
1604404771.65594459,0.00512400,-0.00488000,1.02309200,-0.16873995,-0.06144818,0.00537250,-0.09619750,0.03221750,-0.36290558,0.94869921,0.58520900
1604404771.71755600,0.00573400,-0.00597800,1.02260400,-0.06868216,-0.09705616,-0.06462750,0.00880250,-0.14278250,-0.36290558,0.94869921,0.58520900
1604404771.77887869,0.00732000,-0.00536800,1.02626400,-0.03406822,-0.19187507,-0.23962750,0.42880250,0.38221750,-0.36480561,0.94767612,0.58579363
1604404771.84072471,0.00500200,-0.00536800,1.01967600,-0.07028481,0.00423328,0.00537250,0.07880250,-0.00278250,-0.36480561,0.94767612,0.58579363
1604404771.90213513,0.00488000,-0.00512400,1.02297000,-0.10212098,-0.38930385,0.14537250,-0.16619750,-0.42278250,-0.36553639,0.94957615,0.58798597
1604404771.96405005,0.00500200,-0.00646600,1.02528800,-0.17003024,-0.05548796,0.18037250,-0.02619750,0.06721750,-0.36582871,0.94475300,0.58272435
1604404772.02546382,0.00622200,-0.00561200,1.02260400,-0.04855128,-0.12471894,0.14537250,-0.30619750,-0.10778250,-0.36582871,0.94475300,0.58272435
1604404772.08769655,0.00549000,-0.00549000,1.02504400,-0.04124749,-0.08326637,-0.23962750,0.28880250,0.20721750,-0.36641333,0.95176849,0.57863198
1604404772.15042138,0.00268400,-0.00427000,1.02394600,0.02809940,0.07430041,0.00537250,-0.06119750,0.20721750,-0.36641333,0.95176849,0.57863198
1604404772.21284771,0.00427000,-0.00427000,1.02614200,0.02719703,-0.01482185,-0.62462750,0.88380250,0.52221750,-0.37109032,0.94869921,0.58447822
1604404772.27550888,0.00610000,-0.00695400,1.02297000,-0.11232365,-0.10792861,0.42537250,-0.76119750,-0.45778250,-0.36729027,0.94826074,0.58009354
1604404772.33808303,0.00512400,-0.00292800,1.02504400,0.10195283,-0.04917402,0.32037250,-0.41119750,-0.03778250,-0.36729027,0.94826074,0.58009354
1604404772.40070462,0.00451400,-0.00695400,1.02431200,-0.12335267,-0.08348298,0.04037250,-0.06119750,-0.00278250,-0.36451330,0.94869921,0.58447822
1604404772.46323776,0.00451400,-0.00488000,1.02223800,-0.00790273,-0.00889389,-0.06462750,-0.02619750,0.31221750,-0.36831336,0.94723765,0.58111663
1604404772.52566361,0.00512400,-0.00573400,1.02602000,-0.05457956,-0.11703654,-0.72962750,1.23380250,0.69721750,-0.36831336,0.94723765,0.58111663
1604404772.58837795,0.00549000,-0.00622200,1.02370200,-0.08261559,-0.13146258,-0.06462750,0.21880250,-0.21278250,-0.36597486,0.94606840,0.58023970
1604404772.65135908,0.00610000,-0.00549000,1.02577600,-0.03196747,-0.10705128,0.63537250,-1.18119750,-0.35278250,-0.36597486,0.94606840,0.58023970
1604404772.71392083,0.00573400,-0.00475800,1.02480000,-0.00039626,-0.09698182,0.11037250,-0.27119750,-0.21278250,-0.36480561,0.94899152,0.57731657
1604404772.77647305,0.00536800,-0.00500200,1.02284800,-0.01457143,-0.09075957,-0.51962750,0.98880250,0.10221750,-0.36451330,0.94709149,0.58418591
1604404772.83899283,0.00549000,-0.00305000,1.02309200,0.09480860,-0.06335858,0.39037250,-0.65619750,-0.38778250,-0.36451330,0.94709149,0.58418591
1604404772.90164733,0.00524600,-0.00378200,1.02309200,0.05381533,-0.04286157,-0.44962750,0.84880250,0.48721750,-0.36641333,0.94840690,0.57980123
1604404772.96423197,0.00524600,-0.00427000,1.02162800,0.02614427,-0.05008478,-0.41462750,0.49880250,0.38221750,-0.36641333,0.94840690,0.57980123
1604404773.02678347,0.00610000,-0.00536800,1.02663000,-0.03396553,-0.06236705,0.07537250,0.00880250,-0.07278250,-0.36816720,0.94329144,0.57936276
1604404773.08931732,0.00549000,-0.00549000,1.02394600,-0.04157710,-0.06311641,0.28537250,-0.20119750,-0.17778250,-0.36246711,0.94738381,0.58462438
1604404773.15195298,0.00475800,-0.00597800,1.02736200,-0.06776980,-0.07576962,0.53037250,-0.79619750,-0.00278250,-0.36246711,0.94738381,0.58462438
1604404773.21442771,0.00597800,-0.00780800,1.02724000,-0.16987743,0.01945994,-0.48462750,0.84880250,0.41721750,-0.37372113,0.94855305,0.57790120
1604404773.27697945,0.00524600,-0.00841800,1.02797200,-0.20356377,-0.00079243,-0.30962750,0.56880250,0.20721750,-0.36743642,0.95118386,0.57921660
1604404773.33947444,0.00658800,-0.00244000,1.02760600,0.12957072,-0.13692126,-0.06462750,0.25380250,-0.10778250,-0.36743642,0.95118386,0.57921660
1604404773.40210295,0.00634400,-0.00597800,1.02931400,-0.06714179,0.14210418,-0.06462750,0.32380250,0.24221750,-0.36772873,0.95206080,0.57980123
1604404773.46465802,0.00488000,-0.00402600,1.01650400,0.03869707,-0.30588359,-0.06462750,-0.13119750,-0.17778250,-0.36772873,0.95206080,0.57980123
1604404773.52719831,0.00549000,-0.00597800,1.02065200,0.01222246,-0.20100927,-0.02962750,0.18380250,0.06721750,-0.36992108,0.94752996,0.57965507
1604404773.58987069,0.00475800,-0.00573400,1.02272600,0.09474718,-0.04295756,0.00537250,1.37380250,0.90721750,-0.36933645,0.94855305,0.58725519
1604404773.65250587,0.00475800,-0.00536800,1.02248200,-0.00099364,-0.26860769,0.00537250,-0.79619750,-0.28278250,-0.36933645,0.94855305,0.58725519
1604404773.71512461,0.00536800,-0.00561200,1.02455600,0.08140786,-0.06294835,-0.02962750,-0.97119750,-0.49278250,-0.36919030,0.94270681,0.57863198
1604404773.77772141,0.00585600,-0.00524600,1.03224200,-0.12714112,0.13556429,0.00537250,0.60380250,-0.00278250,-0.36919030,0.94270681,0.57863198
1604404773.84034824,0.00549000,-0.00463600,1.02785000,0.08879975,-0.12323419,-0.06462750,-1.14619750,-0.56278250,-0.36729027,0.94358375,0.58330897
1604404773.90292978,0.00549000,-0.00524600,1.02748400,-0.26501277,0.31883425,0.04037250,0.25380250,0.24221750,-0.36948261,0.94226834,0.58213973
1604404773.96549344,0.00353800,-0.00597800,1.02406800,0.02671618,-0.11086267,-0.02962750,-1.14619750,-0.35278250,-0.36948261,0.94226834,0.58213973
1604404774.02804542,0.00634400,-0.00610000,1.02492200,-0.15721519,-0.17877426,0.00537250,1.12880250,0.48721750,-0.37021339,0.94679918,0.57453961
1604404774.09071279,0.00463600,-0.00585600,1.02650800,-0.07486027,0.10102488,0.11037250,-0.09619750,0.13721750,-0.37021339,0.94679918,0.57453961
1604404774.15342498,0.00488000,-0.00427000,1.03529200,0.01579925,0.10881554,0.07537250,-0.41119750,0.17221750,-0.36582871,0.95118386,0.58213973
1604404774.21590352,0.00732000,-0.00475800,1.03358400,0.04243844,0.04099705,0.14537250,-0.06119750,-0.03778250,-0.36875183,0.95366852,0.57921660
1604404774.27848935,0.00475800,-0.00390400,1.02028600,-0.11119070,0.10712883,-0.02962750,0.32380250,0.34721750,-0.36875183,0.95366852,0.57921660
1604404774.34122872,0.00488000,-0.00488000,1.03199800,-0.22205082,-0.03378139,0.07537250,0.00880250,0.20721750,-0.36772873,0.94869921,0.58842444
1604404774.40381265,0.00475800,-0.00622200,1.03358400,-0.20101983,0.17625578,-0.06462750,0.84880250,0.20721750,-0.36319790,0.94782227,0.58360129
1604404774.46647954,0.00378200,-0.00524600,1.02284800,-0.03506846,-0.20692948,-0.02962750,-0.90119750,-0.59778250,-0.36319790,0.94782227,0.58360129
1604404774.52903891,0.00512400,-0.00366000,1.02321400,0.02651480,-0.01550408,0.04037250,0.56880250,-0.00278250,-0.36772873,0.94840690,0.58637825
1604404774.59156013,0.00768600,-0.00500200,1.01528400,0.03842080,-0.19637054,0.00537250,0.07880250,-0.35278250,-0.36772873,0.94840690,0.58637825
1604404774.65415525,0.00646600,-0.00658800,1.03236400,-0.04583928,-0.17587877,-0.06462750,2.03880250,0.73221750,-0.36305174,0.94533762,0.57731657
1604404774.71674562,0.00646600,-0.00158600,1.02516600,0.08833602,-0.07641452,0.07537250,1.23380250,0.31221750,-0.36743642,0.94738381,0.58038585
1604404774.77932787,0.00109800,-0.00414800,1.02309200,0.01965940,-0.22049247,-0.20462750,0.84880250,0.27721750,-0.36743642,0.94738381,0.58038585
1604404774.84192371,0.00585600,-0.00500200,1.02650800,-0.23147145,0.08740875,0.32037250,-0.34119750,0.10221750,-0.36992108,0.94504531,0.58769366
1604404774.90450335,0.00414800,-0.00451400,1.02772800,-0.07445689,0.22359491,0.11037250,0.04380250,0.17221750,-0.36992108,0.94504531,0.58769366
1604404774.96699333,0.00244000,-0.00963800,1.02406800,-0.45581938,0.31207026,0.21537250,-0.09619750,0.17221750,-0.36962876,0.94621456,0.57994738
1604404775.02947068,0.01061400,-0.00402600,1.02528800,-0.12150248,-0.21785447,0.14537250,-0.23619750,-0.56278250,-0.36202865,0.94402222,0.58184741
1604404775.09222269,0.00256200,-0.00622200,1.02370200,-0.19132199,0.04627814,-0.02962750,0.25380250,-0.63278250,-0.36202865,0.94402222,0.58184741
1604404775.15484810,0.00585600,-0.00451400,1.02345800,-0.16454975,-0.11780354,-0.02962750,-0.06119750,0.10221750,-0.36714411,0.94621456,0.58243204
1604404775.21746898,0.00683200,-0.00622200,1.02382400,0.01839778,-0.37385274,-0.16962750,0.28880250,0.38221750,-0.36612102,0.94372990,0.58418591
1604404775.28015828,0.00244000,-0.00658800,1.02175000,0.12161188,-0.40728266,-0.02962750,0.04380250,-0.14278250,-0.36612102,0.94372990,0.58418591
1604404775.34271502,0.01000400,-0.00512400,1.02370200,-0.27379183,-0.11779803,0.21537250,-0.41119750,-0.03778250,-0.36802105,0.94387606,0.58389360
1604404775.40528011,0.00585600,-0.00353800,1.02394600,0.10158209,-0.06346137,-0.09962750,0.35880250,0.20721750,-0.36802105,0.94387606,0.58389360
1604404775.46785855,0.00036600,-0.00500200,1.02382400,-0.04639467,-0.10876215,0.32037250,-0.44619750,-0.63278250,-0.36787489,0.94402222,0.57921660
1604404775.53049135,0.00695400,-0.00475800,1.02406800,0.17681890,-0.31601255,-0.06462750,0.25380250,-0.73778250,-0.36787489,0.94752996,0.58623210
1604404775.59308267,0.00390400,-0.00744200,1.04981000,-0.24871629,-0.03356754,0.04037250,0.00880250,-0.52778250,-0.36787489,0.94752996,0.58623210
1604404775.65582705,0.00561200,-0.00927200,1.02028600,-0.05164635,-0.27298985,-0.02962750,0.39380250,-0.10778250,-0.36422099,0.94855305,0.58857059
1604404775.71828604,0.00683200,0.00158600,1.02126200,0.46401958,-0.46741995,-0.06462750,0.25380250,-0.17778250,-0.36422099,0.94855305,0.58857059
1604404775.78093624,0.00170800,-0.00988200,1.02406800,-0.32939510,-0.24146625,-0.16962750,-0.02619750,-0.21278250,-0.36729027,0.94621456,0.59017831
1604404775.84358311,0.00927200,-0.00390400,1.02345800,0.08740942,-0.35215102,0.07537250,0.21880250,0.13721750,-0.37035954,0.94562993,0.58579363
1604404775.90611815,0.00402600,-0.00244000,1.02345800,0.09424133,-0.29738377,-0.23962750,0.42880250,0.52221750,-0.37035954,0.94562993,0.58579363
1604404775.96868324,0.00122000,-0.00939400,1.02516600,-0.19876678,0.51298956,0.28537250,-0.37619750,0.20721750,-0.36305174,0.94650687,0.58360129
1604404776.03130960,0.00939400,-0.00305000,1.02699600,0.11701157,-0.33704904,0.04037250,0.11380250,0.59221750,-0.36305174,0.94650687,0.58360129
1604404776.09386826,0.00610000,-0.00622200,1.02370200,-0.14256581,0.20998904,0.11037250,0.18380250,-0.24778250,-0.36173633,0.94139141,0.58447822
1604404776.15656900,0.00231800,-0.00305000,1.02284800,0.34797101,-0.31859805,-0.16962750,0.25380250,0.24221750,-0.36845951,0.94460684,0.58593978
1604404776.21919608,0.00475800,-0.00463600,1.02480000,0.09403498,-0.25683065,-0.30962750,0.67380250,0.45221750,-0.36845951,0.94460684,0.58593978
1604404776.28176928,0.00475800,-0.00646600,1.02175000,-0.25752397,0.00618951,0.14537250,-0.09619750,0.45221750,-0.36699795,0.95103771,0.58257819
1604404776.34430361,0.00610000,-0.00280600,1.02321400,0.23157486,-0.18487562,0.21537250,-0.51619750,-0.73778250,-0.37123648,0.94519146,0.58038585
1604404776.40693259,0.00524600,-0.00744200,1.02089600,-0.42016019,0.42728571,0.14537250,-0.44619750,0.06721750,-0.37123648,0.94519146,0.58038585
1604404776.46950817,0.00183000,-0.00500200,1.02467800,0.12278276,0.18278608,0.07537250,-0.06119750,0.52221750,-0.36582871,0.94782227,0.58564747
1604404776.53216267,0.00878400,-0.00512400,1.02492200,-0.01614255,-0.31930738,-0.16962750,0.18380250,0.34721750,-0.36582871,0.94782227,0.58564747
1604404776.59470725,0.00610000,-0.00585600,1.02309200,-0.16216008,0.08100480,0.28537250,-0.37619750,-0.28278250,-0.37035954,0.94796843,0.58710903
1604404776.65733457,0.00219600,-0.00134200,1.02199400,0.01586052,0.50034872,0.25037250,-0.55119750,-0.14278250,-0.36626717,0.95249927,0.57687811
1604404776.71996951,0.00817400,-0.00805200,1.02443400,0.04014148,-0.53483214,0.14537250,-0.30619750,-0.28278250,-0.36626717,0.95249927,0.57687811
1604404776.78252387,0.00573400,-0.00500200,1.02602000,-0.01910021,0.25071042,0.28537250,-0.23619750,-0.10778250,-0.36962876,0.94782227,0.58330897
1604404776.84504747,0.00329400,-0.00329400,1.02419000,0.19024372,-0.07788666,-0.13462750,0.21880250,0.10221750,-0.36962876,0.94782227,0.58330897
1604404776.90762901,0.00622200,-0.00719800,1.02358000,-0.04205179,-0.12509323,0.04037250,-0.30619750,-0.07278250,-0.36816720,0.94972230,0.58170126
1604404776.97031331,0.00585600,-0.00390400,1.02467800,-0.07413416,0.18282539,0.21537250,-0.27119750,-0.14278250,-0.36787489,0.95235311,0.58199357
1604404777.03282976,0.00341600,-0.00610000,1.02394600,-0.05669119,0.03158408,-0.34462750,0.46380250,0.10221750,-0.36787489,0.95235311,0.58199357
1604404777.09543371,0.00756400,-0.00451400,1.02297000,-0.11300683,-0.19559289,0.21537250,-0.34119750,-0.21278250,-0.36436714,0.94796843,0.58038585
1604404777.15831184,0.00524600,-0.00439200,1.02443400,0.09017129,0.34505500,0.14537250,-0.27119750,-0.10778250,-0.35998246,0.94650687,0.58477053
1604404777.22095585,0.00622200,-0.00756400,1.02321400,-0.24600293,0.19630904,0.28537250,-0.34119750,-0.35278250,-0.35998246,0.94650687,0.58477053
1604404777.28359890,0.00378200,-0.00292800,1.02382400,0.06081999,-0.12455595,0.42537250,-0.97119750,-0.21278250,-0.36495177,0.94679918,0.58111663
1604404777.34622264,0.00646600,-0.00463600,1.02602000,-0.17044906,0.11458018,0.28537250,-0.44619750,-0.17778250,-0.36495177,0.94679918,0.58111663
1604404777.40879798,0.00793000,-0.00585600,1.02248200,-0.19093781,-0.06941399,0.32037250,-0.30619750,-0.10778250,-0.36319790,0.94577609,0.58389360
1604404777.47138953,0.00658800,-0.00451400,1.02467800,-0.18974495,-0.10263058,0.28537250,-0.44619750,-0.14278250,-0.36685180,0.94782227,0.57775504
1604404777.53396487,0.00439200,-0.00341600,1.02394600,-0.30875366,1.71033495,0.04037250,0.00880250,0.06721750,-0.36685180,0.94782227,0.57775504
1604404777.59656906,0.00488000,-0.00683200,1.02211600,-0.09345002,-0.04739588,0.11037250,-0.23619750,-0.21278250,-0.36232096,0.94416837,0.57658579
1604404777.65923405,0.00561200,-0.00427000,1.02480000,0.18375421,-0.09020159,-0.23962750,0.53380250,0.06721750,-0.36232096,0.94416837,0.57658579
1604404777.72181439,0.00402600,-0.00463600,1.02455600,0.11403920,-0.00376731,-0.23962750,0.60380250,0.24221750,-0.36392868,0.95293774,0.58038585
1604404777.78434706,0.00671000,-0.00402600,1.02492200,-0.18225595,-0.14962871,0.28537250,-0.48119750,0.03221750,-0.36042093,0.95323005,0.57307805
1604404777.84687901,0.00732000,-0.00549000,1.02419000,-0.00963892,-0.18928614,-0.27462750,0.53380250,0.17221750,-0.36042093,0.95323005,0.57307805
1604404777.90951371,0.00610000,-0.00805200,1.02492200,0.12061656,-0.12163830,-0.20462750,0.56880250,0.24221750,-0.36290558,0.94840690,0.57804735
1604404777.97216940,0.00414800,-0.00305000,1.02236000,0.41014217,-0.01040383,-0.27462750,0.46380250,0.20721750,-0.36290558,0.94840690,0.57804735
1604404778.03472710,0.00780800,-0.00585600,1.02419000,-0.14430608,-0.21365347,0.28537250,-0.65619750,-0.07278250,-0.36173633,0.94314528,0.57760889
1604404778.09727049,0.00463600,-0.00390400,1.02358000,-0.01855943,-0.03351400,0.49537250,-0.72619750,-0.28278250,-0.36626717,0.94577609,0.57950892
1604404778.15995216,0.00390400,-0.00475800,1.02358000,0.06079329,0.00511965,0.49537250,-0.69119750,-0.31778250,-0.36626717,0.94577609,0.57950892
1604404778.22250390,0.00524600,-0.00597800,1.02321400,0.01939101,-0.07050491,-0.09962750,0.00880250,-0.03778250,-0.36977492,0.94796843,0.58564747
1604404778.28513217,0.00634400,-0.00597800,1.02516600,0.15614236,-0.13218928,-0.09962750,0.18380250,0.20721750,-0.36568255,0.94723765,0.58009354
1604404778.34772587,0.00488000,-0.00597800,1.02516600,0.11425816,-0.05159788,-0.48462750,0.84880250,0.27721750,-0.36568255,0.94723765,0.58009354
1604404778.41039515,0.00414800,-0.00524600,1.02321400,-0.21733420,-0.00767385,0.35537250,-0.37619750,-0.17778250,-0.37299035,0.94694534,0.58681672
1604404778.47298312,0.00439200,-0.00414800,1.02358000,-0.21975377,-0.02250477,0.28537250,-0.69119750,-0.24778250,-0.37299035,0.94694534,0.58681672
1604404778.53554034,0.00597800,-0.00585600,1.02675200,-0.03982896,-0.10899860,-0.34462750,0.63880250,0.13721750,-0.36904414,0.94431453,0.58550132
1604404778.59815025,0.00890600,-0.00353800,1.02394600,0.02711888,-0.27384213,-0.23962750,0.53380250,0.27721750,-0.36509792,0.94665303,0.57337036
1604404778.66085696,0.00341600,-0.00414800,1.02284800,-0.07656716,0.03197436,-0.09962750,0.39380250,0.06721750,-0.36509792,0.94665303,0.57337036
1604404778.72342134,0.00463600,-0.00622200,1.02260400,0.06069623,-0.03596766,0.07537250,-0.20119750,-0.24778250,-0.36802105,0.95016077,0.57380883
1604404778.78591275,0.00451400,-0.00536800,1.02553200,-0.42124967,-0.02555626,0.35537250,-0.48119750,-0.24778250,-0.36802105,0.95016077,0.57380883
1604404778.84847784,0.00451400,-0.00500200,1.02370200,-0.01463977,-0.02931665,0.53037250,-0.97119750,-0.35278250,-0.36685180,0.94650687,0.58477053
1604404778.91108179,0.00488000,-0.00597800,1.02370200,-0.06892261,-0.04949551,0.11037250,-0.02619750,-0.31778250,-0.36188249,0.94679918,0.58857059
1604404778.97366929,0.00414800,-0.00475800,1.02333600,0.00183128,-0.00636913,0.53037250,-0.93619750,-0.49278250,-0.36188249,0.94679918,0.58857059
1604404779.03630519,0.00524600,-0.00463600,1.02504400,0.00694723,-0.06910700,0.21537250,-0.48119750,-0.24778250,-0.37123648,0.94475300,0.58316282
1604404779.09890223,0.00524600,-0.00524600,1.02321400,-0.03218182,-0.07420070,-0.20462750,0.21880250,-0.10778250,-0.36539024,0.94665303,0.57965507
1604404779.16154742,0.00427000,-0.00610000,1.02358000,-0.07891166,-0.01757216,-0.34462750,0.42880250,0.31221750,-0.36539024,0.94665303,0.57965507
1604404779.22411323,0.00488000,-0.00439200,1.02382400,0.02032753,-0.04894557,0.14537250,-0.30619750,-0.10778250,-0.36349021,0.95264543,0.57804735
1604404779.28667283,0.00414800,-0.00463600,1.02443400,1.74536273,-0.00716659,-0.30962750,0.63880250,0.10221750,-0.36349021,0.95264543,0.57804735
1604404779.34930921,0.00561200,-0.00549000,1.02297000,-0.03975722,-0.08856219,-0.13462750,0.25380250,0.20721750,-0.36349021,0.94972230,0.58477053
1604404779.41190934,0.00512400,-0.00475800,1.02236000,-0.00237503,-0.06500860,0.56537250,-0.72619750,-0.24778250,-0.36553639,0.94650687,0.58213973
1604404779.47454906,0.00561200,-0.00658800,1.02272600,-0.09832989,-0.08643061,0.04037250,-0.06119750,-0.03778250,-0.36553639,0.94650687,0.58213973
1604404779.53716135,0.00341600,-0.00463600,1.02455600,0.00620563,0.03245236,0.07537250,0.00880250,-0.21278250,-0.37225957,0.94256065,0.58111663
1604404779.59990358,0.00549000,-0.00451400,1.02309200,0.01048095,-0.08670228,-0.44962750,0.70880250,0.20721750,-0.37225957,0.94256065,0.58111663
1604404779.66257286,0.00561200,-0.00305000,1.02528800,0.09634303,-0.08786437,0.35537250,-0.34119750,-0.14278250,-0.37138264,0.94636071,0.58184741
1604404779.72510409,0.00524600,-0.00610000,1.02114000,-0.07746607,-0.07145330,0.56537250,-0.93619750,-0.31778250,-0.37094417,0.94329144,0.58783981
1604404779.78766227,0.00622200,-0.00634400,1.02504400,-0.09411634,-0.12921724,-0.27462750,0.28880250,0.34721750,-0.37094417,0.94329144,0.58783981
1604404779.85030651,0.00500200,-0.00414800,1.02480000,0.03469594,-0.05486519,-0.13462750,0.14880250,0.06721750,-0.36714411,0.94826074,0.58579363
1604404779.91293263,0.00549000,-0.00549000,1.02528800,-0.04231026,-0.08432914,-0.48462750,0.88380250,0.34721750,-0.36714411,0.94826074,0.58579363
1604404779.97552419,0.00390400,-0.00536800,1.02284800,-0.03673358,0.00370640,-0.30962750,0.46380250,0.03221750,-0.36875183,0.94592224,0.58798597
1604404780.03806710,0.00561200,-0.00573400,1.02443400,-0.05412422,-0.08934010,0.42537250,-0.72619750,-0.38778250,-0.37240573,0.94767612,0.57702426
1604404780.10075927,0.00427000,-0.00622200,1.02394600,-0.08403595,-0.01636001,-0.20462750,0.04380250,0.03221750,-0.37240573,0.94767612,0.57702426
1604404780.16365099,0.00244000,-0.00524600,1.02431200,-0.02820731,0.08693440,0.14537250,0.00880250,-0.00278250,-0.36860567,0.94562993,0.57950892
1604404780.22624540,0.00475800,-0.00463600,1.02455600,0.00415100,-0.04474853,0.18037250,-0.16619750,-0.10778250,-0.37138264,0.95016077,0.58330897
1604404780.28882766,0.00500200,-0.00414800,1.02382400,0.03351292,-0.05629178,0.60037250,-0.76119750,-0.45778250,-0.37138264,0.95016077,0.58330897
1604404780.35136914,0.00646600,-0.00732000,1.02419000,-0.13924107,-0.13402623,0.35537250,-0.55119750,-0.17778250,-0.37021339,0.94913768,0.57790120
1604404780.41391206,0.00646600,-0.00292800,1.02321400,0.10123036,-0.13942042,-0.34462750,0.60380250,0.27721750,-0.37021339,0.94913768,0.57790120
1604404780.47647715,0.00366000,-0.00390400,1.02504400,0.04881768,0.02034862,-0.09962750,0.18380250,0.10221750,-0.37474423,0.94796843,0.57717042
1604404780.53904605,0.00549000,-0.00451400,1.02394600,0.01279333,-0.08388991,-0.51962750,0.63880250,0.41721750,-0.36977492,0.94913768,0.58842444
1604404780.60162902,0.00658800,-0.00353800,1.02333600,0.06849231,-0.14346067,0.21537250,-0.30619750,-0.10778250,-0.36977492,0.94913768,0.58842444
1604404780.66420126,0.00366000,-0.00634400,1.02358000,-0.08809912,0.01953064,0.18037250,-0.13119750,-0.42278250,-0.37489038,0.94767612,0.58403975
1604404780.72673225,0.00488000,-0.00414800,1.02638600,0.03323592,-0.04979110,0.00537250,-0.06119750,-0.10778250,-0.37489038,0.94767612,0.58403975
1604404780.78930664,0.00402600,-0.00451400,1.02370200,0.02045183,0.00493708,0.60037250,-1.00619750,-0.35278250,-0.36436714,0.95001462,0.58126279
1604404780.85187221,0.00658800,-0.00402600,1.02419000,0.04039498,-0.14494655,-0.09962750,0.28880250,-0.14278250,-0.37167495,0.94869921,0.58403975
1604404780.91442084,0.00634400,-0.00463600,1.02480000,0.00642719,-0.19247002,-0.06462750,0.11380250,-0.00278250,-0.37167495,0.94869921,0.58403975
1604404780.97698855,0.00475800,-0.00500200,1.02394600,-0.01427433,0.08023800,0.35537250,-0.65619750,-0.45778250,-0.36597486,0.94548378,0.58360129
1604404781.03951836,0.00658800,-0.00683200,1.02309200,-0.11698381,-0.10434524,0.63537250,-0.79619750,-0.31778250,-0.36465946,0.94782227,0.58067816
1604404781.10216880,0.00707600,-0.00622200,1.01992000,-0.08390679,-0.13277910,0.70537250,-1.00619750,-0.45778250,-0.36465946,0.94782227,0.58067816
1604404781.16472816,0.00292800,-0.00536800,1.02541000,-0.03432466,0.07362620,0.35537250,-0.48119750,-0.14278250,-0.37225957,0.95249927,0.58316282
1604404781.22727585,0.00646600,-0.00707600,1.02260400,-0.13083494,-0.14551213,-0.69462750,1.02380250,0.55721750,-0.37225957,0.95249927,0.58316282
1604404781.28996181,0.00683200,-0.00329400,1.02211600,0.08096979,-0.15253379,0.70537250,-0.90119750,-0.49278250,-0.36568255,0.95030693,0.58301666
1604404781.35249400,0.00439200,-0.00585600,1.02480000,-0.06178502,0.01897133,-0.06462750,-0.16619750,0.20721750,-0.36845951,0.94679918,0.58199357
1604404781.41515374,0.00500200,-0.00402600,1.02687400,0.04098052,0.01257584,0.14537250,-0.30619750,0.10221750,-0.36845951,0.94679918,0.58199357
1604404781.47772598,0.00878400,-0.00451400,1.02138400,0.01240727,-0.28966674,-0.02962750,0.46380250,-0.03778250,-0.36626717,0.94650687,0.58038585
1604404781.54040098,-0.02952400,-0.00634400,1.02370200,-0.08945014,0.27139167,0.04037250,0.04380250,-0.28278250,-0.36626717,0.94650687,0.58038585
1604404781.60304785,0.00475800,-0.00561200,1.02455600,-0.04820887,-0.26760933,-0.02962750,0.18380250,0.34721750,-0.36597486,0.94694534,0.58433207
1604404781.66566658,0.00744200,-0.00719800,1.02565400,-0.13647148,-0.13078468,0.60037250,-0.86619750,-0.03778250,-0.37445191,0.94782227,0.58170126
1604404781.72818303,0.00292800,-0.00597800,1.02724000,-0.06781342,0.12152588,-0.20462750,0.42880250,0.24221750,-0.37445191,0.94782227,0.58170126
1604404781.79082084,0.00744200,-0.00439200,1.02638600,0.02044847,-0.21225741,-0.58962750,0.77880250,0.34721750,-0.36977492,0.95118386,0.57190880
1604404781.85331202,0.00512400,-0.00658800,1.02980200,-0.10091984,0.01996607,-0.02962750,-0.06119750,0.03221750,-0.36977492,0.95118386,0.57190880
1604404781.91587567,0.00402600,-0.00512400,1.02028600,-0.02212392,-0.15320561,-0.76462750,1.26880250,0.41721750,-0.36860567,0.95030693,0.58301666
1604404781.97843575,0.00768600,-0.00268400,1.02833800,0.11607155,-0.03470589,-0.20462750,0.39380250,0.13721750,-0.36582871,0.94694534,0.58477053
1604404782.04100323,0.00390400,-0.00549000,1.02358000,-0.04168907,0.03238480,-0.20462750,1.86380250,0.55721750,-0.36582871,0.94694534,0.58477053
1604404782.10361505,0.00390400,-0.00463600,1.02467800,0.00638955,0.18948657,-0.30962750,0.67380250,0.17221750,-0.36173633,0.94723765,0.58228588
1604404782.16624761,0.00866200,-0.00463600,1.02260400,-0.19918709,-0.11133337,-0.06462750,-0.13119750,-0.00278250,-0.37050570,0.94402222,0.58038585
1604404782.22882295,0.00451400,-0.00646600,1.03004600,-0.22297964,0.27788242,0.14537250,-0.30619750,0.06721750,-0.37050570,0.94402222,0.58038585
1604404782.29139280,0.00366000,-0.00402600,1.02028600,0.08749138,-0.23541700,-0.09962750,-0.06119750,-0.28278250,-0.37152879,0.95001462,0.58140894
1604404782.35399795,0.00829600,-0.00683200,1.02626400,-0.23838712,-0.21229635,0.00537250,0.21880250,0.17221750,-0.37152879,0.95001462,0.58140894
1604404782.41655707,0.00341600,-0.00463600,1.02467800,0.15646796,-0.11066587,-0.16962750,1.05880250,0.13721750,-0.37269804,0.94679918,0.58681672
1604404782.47921991,0.00451400,-0.00439200,1.02297000,-0.06920168,-0.05655633,0.14537250,-1.11119750,-0.49278250,-0.36670564,0.94679918,0.58433207
1604404782.54182577,0.00610000,-0.00622200,1.02345800,0.15634048,-0.29546007,0.00537250,-1.63619750,-0.63278250,-0.36670564,0.94679918,0.58433207
1604404782.60440278,0.00451400,-0.00439200,1.02614200,-0.08860591,0.18272366,0.04037250,-1.25119750,-0.56278250,-0.36699795,0.94475300,0.58550132
1604404782.66698980,0.00634400,-0.00500200,1.03309600,-0.04562606,0.27095727,0.07537250,0.49880250,0.06721750,-0.36699795,0.94475300,0.58550132
1604404782.72954583,0.00488000,-0.00488000,1.03358400,-0.31597381,-0.05366992,-0.06462750,1.23380250,0.41721750,-0.36480561,0.94548378,0.58418591
1604404782.79220533,0.00463600,-0.00561200,1.01918800,-0.31733668,0.30589240,0.00537250,1.02380250,0.59221750,-0.36670564,0.94343759,0.58740134
1604404782.85475826,0.00524600,-0.00317200,1.01613800,-0.04393624,-0.10659201,0.18037250,-1.74119750,-0.66778250,-0.36670564,0.94343759,0.58740134
1604404782.91738653,0.00427000,-0.00585600,1.02187200,-0.26792255,-0.02264983,0.07537250,-1.49619750,-0.45778250,-0.36729027,0.94621456,0.58345513
1604404782.98004770,0.00463600,-0.00317200,1.01723600,0.21064317,-0.32611961,-0.13462750,0.53380250,0.27721750,-0.36729027,0.94621456,0.58126279
1604404783.04261303,0.00683200,-0.00597800,1.01748000,0.13509690,-0.58014000,-0.02962750,0.04380250,-0.35278250,-0.36772873,0.94621456,0.58126279
1604404783.10520148,0.00244000,-0.00671000,1.01870000,-0.19411446,0.30593344,-0.06462750,0.60380250,0.31221750,-0.36933645,0.94986846,0.58433207
1604404783.16792870,0.00475800,-0.00512400,1.02260400,0.01271130,-0.33689880,-0.02962750,-0.55119750,-0.52778250,-0.36933645,0.94986846,0.58433207
1604404783.23063660,0.00597800,-0.00549000,1.02382400,-0.04844440,0.13483974,0.00537250,0.91880250,0.52221750,-0.36465946,0.94416837,0.58462438
1604404783.29323840,0.00536800,-0.00549000,1.02931400,-0.06035033,0.08098623,0.18037250,1.19880250,0.31221750,-0.36582871,0.94460684,0.58126279
1604404783.35590935,0.00512400,-0.00512400,1.02126200,-0.06291230,-0.20075284,-0.16962750,0.32380250,0.13721750,-0.36582871,0.94460684,0.58126279
1604404783.41851759,0.00646600,-0.00561200,1.01650400,0.00431800,-0.34713756,0.07537250,-1.14619750,-0.24778250,-0.36962876,0.94826074,0.58155510
1604404783.48103786,0.00695400,-0.00512400,1.01979800,0.02572253,-0.31788041,-0.09962750,-1.00619750,-0.00278250,-0.36962876,0.94826074,0.58155510
1604404783.54359627,0.00390400,-0.00488000,1.02687400,-0.04751025,0.03299826,0.11037250,0.67380250,-0.14278250,-0.36568255,0.94869921,0.58360129
1604404783.60606217,0.00463600,-0.00475800,1.03517000,-0.05850648,0.35864442,-0.02962750,0.56880250,0.24221750,-0.36407483,0.94694534,0.57877814
1604404783.66867709,0.00463600,-0.00622200,1.02772800,0.11598370,-0.10287212,-0.02962750,-1.14619750,-0.59778250,-0.36407483,0.94694534,0.57877814
1604404783.73129439,0.00695400,-0.00463600,1.02809400,-0.09472432,-0.15713999,0.11037250,-1.25119750,-0.59778250,-0.37211342,0.94358375,0.58886291
1604404783.79396367,0.00671000,-0.00439200,1.02577600,-0.08792820,-0.08915334,-0.09962750,0.63880250,0.62721750,-0.37211342,0.94358375,0.58886291
1604404783.85656095,0.00512400,-0.00524600,1.02114000,0.08197746,-0.12327523,-0.23962750,0.91880250,-0.07278250,-0.37094417,0.94372990,0.58754750
1604404783.91920924,0.00439200,-0.00524600,1.02736200,-0.06096002,-0.23905383,0.11037250,0.42880250,0.20721750,-0.36948261,0.94256065,0.57585501
1604404783.98181438,0.00549000,-0.00756400,1.02345800,0.17622038,-0.18211685,-0.09962750,0.00880250,-0.10778250,-0.36948261,0.94256065,0.57585501
1604404784.04424143,0.00427000,-0.00488000,1.02419000,0.01112319,-0.04465204,0.04037250,-0.09619750,-0.03778250,-0.37591348,0.94899152,0.58228588
1604404784.10678768,0.00683200,-0.00475800,1.02626400,-0.04317590,-0.49006737,-0.27462750,0.53380250,0.20721750,-0.37182110,0.94197603,0.58228588
1604404784.16927004,0.00475800,-0.00488000,1.02321400,0.01841499,0.05879600,0.18037250,-0.23619750,-0.49278250,-0.37182110,0.94197603,0.58228588
1604404784.23187184,0.00488000,-0.00683200,1.02345800,0.24521197,-0.05523100,-0.09962750,0.18380250,-0.42278250,-0.37372113,0.94548378,0.58506285
1604404784.29436159,0.00634400,-0.00549000,1.02297000,0.42473773,-0.46134533,-0.30962750,0.56880250,0.41721750,-0.37372113,0.94548378,0.58506285
1604404784.35693932,0.00463600,-0.00488000,1.02614200,0.08967576,-0.06061339,-0.13462750,0.25380250,0.38221750,-0.36436714,0.94475300,0.58272435
1604404784.41956687,0.00597800,-0.00414800,1.02272600,0.07540223,-0.13645010,-0.02962750,-0.06119750,0.38221750,-0.36582871,0.94636071,0.57746273
1604404784.48228741,0.00451400,-0.00402600,1.02236000,-0.09940853,0.17627751,0.21537250,-0.30619750,0.03221750,-0.36582871,0.94636071,0.57746273
1604404784.54486156,0.00488000,-0.00512400,1.02333600,-0.12589044,0.39909571,0.21537250,-0.20119750,-0.21278250,-0.37006723,0.94446068,0.58871675
1604404784.60745621,0.00597800,-0.00524600,1.02382400,0.01720318,-0.28703204,-0.06462750,0.32380250,0.10221750,-0.37006723,0.94446068,0.58871675
1604404784.67028117,0.00463600,-0.00512400,1.02358000,0.12098268,-0.12765390,-0.06462750,0.11380250,-0.03778250,-0.36699795,0.94153756,0.58140894
1604404784.73283315,0.00561200,-0.00549000,1.02431200,0.27919353,-0.34676375,-0.13462750,0.21880250,0.06721750,-0.36758258,0.94519146,0.58287051
1604404784.79548430,0.00610000,-0.00512400,1.02553200,0.20437982,-0.14381133,-0.20462750,0.18380250,-0.03778250,-0.36758258,0.94519146,0.58287051
1604404784.85804605,0.00524600,-0.00841800,1.02480000,-0.22061729,0.08177907,0.07537250,-0.23619750,0.24221750,-0.37269804,0.94767612,0.58301666
1604404784.92073703,0.00744200,-0.00439200,1.02528800,-0.23035294,0.22359491,0.28537250,-0.44619750,-0.14278250,-0.37269804,0.94679918,0.58754750
1604404784.98335338,0.00414800,-0.00512400,1.02370200,0.43075610,-0.53332833,-0.34462750,0.53380250,-0.17778250,-0.36626717,0.94679918,0.58754750
1604404785.04586768,0.00488000,-0.00439200,1.02236000,0.10802032,0.10026095,0.04037250,-0.06119750,-0.14278250,-0.36597486,0.94577609,0.58506285
1604404785.10838985,0.00573400,-0.00646600,1.02321400,-0.31747640,-0.23066994,0.25037250,-0.27119750,-0.07278250,-0.36597486,0.94577609,0.58506285
1604404785.17097640,0.00488000,-0.00488000,1.02260400,-0.00147875,-0.03664906,0.14537250,-0.09619750,-0.00278250,-0.36480561,0.94562993,0.57950892
1604404785.23627424,0.00671000,-0.00658800,1.02382400,-0.10305376,-0.16555447,0.00537250,0.11380250,-0.24778250,-0.37328267,0.94855305,0.57863198
1604404785.29893923,0.00463600,-0.00549000,1.02187200,-0.04219957,-0.09789918,-0.83462750,1.19880250,0.59221750,-0.37328267,0.94855305,0.57863198
1604404785.36167049,0.00500200,-0.00524600,1.02553200,-0.01880906,-0.04759887,0.04037250,0.00880250,-0.24778250,-0.36436714,0.94928384,0.58140894
1604404785.42426324,0.00414800,-0.00414800,1.02309200,0.03331831,-0.00870056,-0.13462750,0.28880250,0.24221750,-0.36436714,0.94928384,0.58140894
1604404785.48689365,0.00390400,-0.00451400,1.02565400,0.02090451,0.01195461,0.25037250,-0.41119750,-0.03778250,-0.36495177,0.94665303,0.57833967
1604404785.54952002,0.00707600,-0.00512400,1.02443400,-0.02095824,-0.17214891,-0.37962750,0.70880250,0.17221750,-0.36115171,0.94402222,0.58243204
1604404785.61225176,0.00439200,-0.00427000,1.02687400,0.02736710,-0.02145887,0.07537250,-0.02619750,-0.03778250,-0.36115171,0.94402222,0.58243204
1604404785.67491221,0.00280600,-0.00780800,1.02675200,-0.15722413,0.07163873,-0.34462750,0.60380250,-0.07278250,-0.36919030,0.94285297,0.58023970
1604404785.73743773,0.00488000,-0.00475800,1.02553200,-0.00020754,-0.04904240,-0.30962750,0.70880250,-0.00278250,-0.36919030,0.94285297,0.58067816
1604404785.80008864,0.00536800,-0.00805200,1.02504400,-0.18444475,-0.07644240,-0.65962750,1.02380250,0.59221750,-0.36743642,0.94606840,0.58067816
1604404785.86282849,0.00378200,-0.00585600,1.02492200,-0.06174591,0.01217578,0.70537250,-0.86619750,-0.35278250,-0.36451330,0.94182987,0.58389360
1604404785.92549348,0.00768600,-0.00463600,1.02565400,0.00664344,-0.20575322,-0.41462750,0.56880250,0.34721750,-0.36451330,0.94182987,0.58389360
1604404785.98806548,0.00329400,-0.00890600,1.02406800,-0.23265460,0.03930587,0.77537250,-0.93619750,-0.31778250,-0.36451330,0.94446068,0.58126279
1604404786.05089688,0.00683200,-0.00244000,1.02284800,0.12968399,-0.15701096,0.56537250,-0.79619750,-0.28278250,-0.36641333,0.94986846,0.58213973
1604404786.11372685,0.00597800,-0.00890600,1.02553200,-0.22946404,-0.10871533,-0.34462750,0.49880250,-0.03778250,-0.36641333,0.94986846,0.58213973
1604404786.17650104,0.00561200,-0.00439200,1.02565400,0.02186465,-0.08786291,0.11037250,-0.13119750,0.03221750,-0.36816720,0.94168372,0.58403975
1604404786.23915029,0.00719800,-0.00451400,1.02614200,0.01369720,-0.17811192,0.49537250,-0.76119750,-0.28278250,-0.36816720,0.94168372,0.58403975
1604404786.30179143,0.00353800,-0.00707600,1.02333600,-0.12891109,0.02633364,0.18037250,-0.09619750,0.13721750,-0.37050570,0.94402222,0.58170126
1604404786.36444712,0.00353800,-0.00219600,1.02162800,0.14311511,0.02623569,0.11037250,-0.09619750,-0.17778250,-0.36144402,0.94256065,0.57907045
1604404786.42712855,0.00744200,-0.00841800,1.02419000,-0.20708906,-0.19430078,0.04037250,-0.27119750,-0.07278250,-0.36144402,0.94256065,0.57907045
1604404786.48988533,0.00390400,-0.00512400,1.02370200,-0.01819161,0.00736260,0.49537250,-0.83119750,-0.42278250,-0.36626717,0.94299912,0.58564747
1604404786.55249023,0.00414800,-0.00512400,1.02480000,-0.02079219,-0.00825721,0.35537250,-0.55119750,-0.45778250,-0.36626717,0.94299912,0.58564747
1604404786.61514711,0.00634400,-0.00622200,1.02492200,-0.08411594,-0.13299235,-0.55462750,0.91880250,0.20721750,-0.36714411,0.94241450,0.57760889
1604404786.67786479,0.00597800,-0.00414800,1.02236000,0.03223507,-0.11274601,0.63537250,-1.04119750,-0.42278250,-0.36831336,0.94372990,0.58491669
1604404786.74052882,0.00439200,-0.00683200,1.02236000,-0.11662192,-0.02212698,0.11037250,-0.37619750,0.10221750,-0.36831336,0.94372990,0.58491669
1604404786.80318356,0.00597800,-0.00353800,1.02309200,0.06946890,-0.10782351,0.35537250,-0.76119750,-0.42278250,-0.36845951,0.94387606,0.58433207
1604404786.86590457,0.00317200,-0.00561200,1.02382400,-0.24691582,0.04592006,-0.34462750,0.32380250,0.10221750,-0.36933645,0.94241450,0.57775504
1604404786.92853904,0.00475800,-0.00512400,1.02431200,-0.02041699,-0.04200494,-0.16962750,0.35880250,0.17221750,-0.36933645,0.94241450,0.57775504
1604404786.99115133,0.00439200,-0.00414800,1.02345800,0.03494140,-0.02064652,-0.16962750,0.14880250,0.03221750,-0.36904414,0.94928384,0.59105525
1604404787.05375528,0.00427000,-0.00671000,1.02199400,-0.11118818,-0.01618713,-0.58962750,0.74380250,0.38221750,-0.36904414,0.94928384,0.59105525
1604404787.11643171,0.00719800,-0.00500200,1.02260400,-0.01456871,-0.17959626,-0.34462750,0.53380250,0.06721750,-0.36612102,0.94577609,0.58213973
1604404787.17906785,0.00195200,-0.00427000,1.02480000,0.02705358,0.11453906,-0.27462750,0.32380250,0.20721750,-0.37182110,0.94913768,0.58579363
1604404787.24174023,0.00341600,-0.00500200,1.02492200,-0.01464094,0.03220184,0.18037250,-0.51619750,-0.35278250,-0.37182110,0.94913768,0.58579363
1604404787.30445433,0.00756400,-0.00536800,1.02431200,0.14932914,-0.20050563,-0.41462750,0.53380250,0.27721750,-0.36626717,0.94460684,0.58301666
1604404787.36711049,0.00634400,-0.00439200,1.02504400,-0.04106352,-0.13078833,0.28537250,-0.27119750,-0.31778250,-0.36626717,0.94460684,0.58301666
1604404787.42982316,0.00488000,-0.00549000,1.02284800,-0.00934569,-0.05136456,-0.27462750,0.42880250,0.13721750,-0.36992108,0.94270681,0.58506285
1604404787.49249601,0.00390400,-0.00353800,1.02272600,-0.01544519,0.00423215,-0.13462750,0.28880250,-0.21278250,-0.36743642,0.94168372,0.58871675
1604404787.55512977,0.00305000,-0.00500200,1.02480000,0.06904880,0.05414242,0.28537250,-0.48119750,-0.10778250,-0.36743642,0.94168372,0.58871675
1604404787.61787677,0.00646600,-0.00744200,1.02370200,-0.04948980,-0.13945982,-0.23962750,0.35880250,-0.00278250,-0.36655949,0.94519146,0.57965507
1604404787.68066382,0.00427000,-0.00500200,1.02455600,0.07410587,-0.01579024,-0.37962750,0.60380250,0.24221750,-0.36962876,0.94621456,0.58345513
1604404787.74350119,0.00475800,-0.00463600,1.02516600,-0.30985331,-0.04358272,-0.23962750,0.39380250,0.10221750,-0.36962876,0.94621456,0.58345513
1604404787.80608010,0.00878400,-0.00475800,1.02309200,0.19028150,-0.26949507,-0.16962750,0.49880250,0.20721750,-0.36626717,0.94329144,0.59163987
1604404787.86878967,0.00317200,-0.00536800,1.02455600,-0.15303777,0.04803264,0.32037250,-0.34119750,-0.24778250,-0.36626717,0.94329144,0.59163987
1604404787.93149352,0.00475800,-0.00622200,1.02663000,-0.12881555,-0.04162367,0.35537250,-0.41119750,-0.17778250,-0.36904414,0.94884537,0.59003215
1604404787.99414706,0.00780800,-0.00463600,1.02443400,-0.22905849,-0.21611264,-0.06462750,0.11380250,0.03221750,-0.36641333,0.94723765,0.57804735
1604404788.05676460,0.00512400,-0.00683200,1.02309200,-0.24862913,-0.06437847,0.11037250,-0.02619750,-0.03778250,-0.36641333,0.94723765,0.57804735
1604404788.11941814,0.00439200,-0.00463600,1.02516600,0.10777604,-0.02345593,-0.27462750,0.25380250,0.17221750,-0.36509792,0.95483777,0.58418591
1604404788.18212461,0.00549000,-0.00475800,1.02345800,-0.20378350,-0.08253179,-0.27462750,0.14880250,0.27721750,-0.36509792,0.95483777,0.58418591
1604404788.24472022,0.00170800,-0.00414800,1.02394600,-0.16625516,0.12762489,0.18037250,-0.30619750,-0.03778250,-0.36904414,0.94913768,0.58243204
1604404788.30731821,0.00561200,-0.00451400,1.02614200,0.11537716,-0.09053744,0.18037250,-0.41119750,-0.21278250,-0.37021339,0.94562993,0.58477053
1604404788.37007070,0.00671000,-0.00683200,1.02419000,0.11454993,-0.15406704,-0.44962750,0.95380250,0.27721750,-0.37021339,0.94562993,0.58477053
1604404788.43273258,0.00463600,-0.00463600,1.02284800,-0.08860599,0.23721866,0.35537250,-0.44619750,-0.10778250,-0.36582871,0.94343759,0.58783981
1604404788.49537516,0.00683200,-0.00378200,1.02272600,0.04659832,-0.30341720,-0.27462750,0.28880250,0.06721750,-0.36582871,0.94343759,0.57819351
1604404788.55798125,0.00268400,-0.00378200,1.02370200,-0.18509306,0.07336067,0.11037250,-0.20119750,-0.21278250,-0.36714411,0.94884537,0.57819351
1604404788.62061691,0.00683200,-0.00414800,1.02516600,0.01871542,-0.16047091,-0.23962750,0.42880250,0.17221750,-0.37109032,0.94679918,0.58330897
1604404788.68321037,0.00732000,-0.00585600,1.02443400,-0.21296718,-0.18661608,-0.06462750,0.46380250,0.03221750,-0.37109032,0.94679918,0.58330897
1604404788.74576735,0.00414800,-0.00439200,1.02480000,0.13499117,-0.01015127,-0.09962750,0.32380250,-0.03778250,-0.36758258,0.94650687,0.58769366
1604404788.80832314,0.00622200,-0.00561200,1.02589800,-0.11584588,-0.12380542,0.28537250,-0.44619750,-0.35278250,-0.36363636,0.94197603,0.58652441
1604404788.87093782,0.00622200,-0.00341600,1.02504400,-0.12155279,-0.12281676,0.00537250,-0.02619750,-0.10778250,-0.36363636,0.94197603,0.58652441
1604404788.93361545,0.00268400,-0.00451400,1.02248200,-0.03173504,1.80514375,0.04037250,-0.20119750,-0.17778250,-0.36392868,0.94694534,0.58374744
1604404788.99626470,0.00622200,-0.00768600,1.02272600,-0.25635665,-0.12667207,0.32037250,-0.44619750,-0.07278250,-0.36392868,0.94694534,0.58374744
1604404789.05887318,0.00646600,-0.00292800,1.02248200,0.14936991,-0.13881464,-0.09962750,0.25380250,0.17221750,-0.37094417,0.94636071,0.58126279
1604404789.12156105,0.00439200,-0.00622200,1.02504400,-0.17673300,-0.02139547,0.04037250,-0.16619750,-0.17778250,-0.36831336,0.95133002,0.58243204
1604404789.18419814,0.00536800,-0.00646600,1.02528800,-0.16082357,-0.07903667,0.35537250,-0.37619750,0.10221750,-0.36831336,0.95133002,0.58243204
1604404789.24678469,0.00451400,-0.00439200,1.02577600,0.04729534,-0.02883600,0.28537250,-0.55119750,-0.24778250,-0.37225957,0.94811459,0.59017831
1604404789.30941081,0.00536800,-0.00683200,1.02297000,-0.41256243,-0.07479701,0.42537250,-0.51619750,-0.10778250,-0.37225957,0.94811459,0.59017831
1604404789.37222528,0.00719800,-0.00536800,1.02480000,-0.16063561,-0.17559058,0.21537250,-0.16619750,-0.21278250,-0.37152879,0.94796843,0.58243204
1604404789.43486738,0.00524600,-0.00622200,1.02345800,-0.08839094,-0.06913918,0.28537250,-0.30619750,-0.10778250,-0.37138264,0.94709149,0.58593978
1604404789.49756742,0.00597800,-0.00353800,1.02345800,-0.09076676,0.18247434,-0.02962750,0.11380250,-0.10778250,-0.37138264,0.94709149,0.58593978
1604404789.56033683,0.00549000,-0.00341600,1.02223800,-0.14858172,0.23038494,0.21537250,-0.48119750,-0.17778250,-0.37415960,0.94343759,0.59076293
1604404789.62292480,0.00512400,-0.00756400,1.02272600,-0.09494618,0.20318599,0.18037250,-0.30619750,-0.14278250,-0.37386729,0.94080678,0.58696288
1604404789.68561983,0.00634400,-0.00402600,1.02480000,-0.16291904,-0.02808156,0.18037250,-0.13119750,-0.21278250,-0.37386729,0.94080678,0.58696288
1604404789.74828625,0.00561200,-0.00439200,1.02455600,-0.00553360,-0.24413778,0.32037250,-0.37619750,-0.49278250,-0.37050570,0.94372990,0.59061678
1604404789.81100631,0.00610000,-0.00439200,1.02504400,0.10777540,0.03830628,-0.06462750,0.11380250,0.20721750,-0.37050570,0.94372990,0.59061678
1604404789.87375188,0.00597800,-0.00549000,1.02455600,-0.14995304,-0.12384529,0.00537250,0.18380250,0.66221750,-0.37401345,0.94782227,0.58827828
1604404789.93638921,0.00427000,-0.00524600,1.02321400,-0.11413471,0.01337806,0.11037250,-0.13119750,0.17221750,-0.36860567,0.94913768,0.58506285
1604404789.99904966,0.00549000,-0.00585600,1.02236000,0.17641094,0.14125382,-0.13462750,0.25380250,0.03221750,-0.36860567,0.94913768,0.58506285
1604404790.06162024,0.00585600,-0.00524600,1.02638600,-0.19583689,0.25752474,0.04037250,-0.27119750,0.38221750,-0.36568255,0.94986846,0.58535516
1604404790.12419200,0.00597800,-0.00512400,1.02345800,0.14220659,-0.00950803,-0.06462750,0.35880250,-0.14278250,-0.36568255,0.94986846,0.58535516
1604404790.18688250,0.00512400,-0.00658800,1.02553200,-0.03482179,-0.08366882,-0.13462750,0.49880250,0.66221750,-0.37006723,0.94972230,0.59120140
1604404790.24968863,0.00475800,-0.00573400,1.02516600,-0.29413605,-0.19280140,-0.06462750,0.00880250,0.24221750,-0.36962876,0.95206080,0.58608594
1604404790.31230235,0.00378200,-0.00585600,1.02358000,-0.12928847,0.20997770,0.00537250,-0.02619750,0.34721750,-0.36962876,0.95206080,0.58608594
1604404790.37503743,0.00573400,-0.00658800,1.02260400,-0.23655122,0.22359491,0.32037250,-0.51619750,-0.14278250,-0.36875183,0.94899152,0.58477053
1604404790.43768954,0.00512400,-0.00585600,1.02577600,0.09415344,0.00412546,0.14537250,-0.16619750,-0.14278250,-0.37269804,0.95016077,0.58418591
1604404790.50044537,0.00597800,-0.00671000,1.02394600,0.16988150,-0.65854417,-0.23962750,0.42880250,-0.07278250,-0.37269804,0.95016077,0.58418591
1604404790.56314898,0.00561200,-0.00573400,1.02480000,0.16387032,-0.03415595,-0.09962750,0.39380250,0.69721750,-0.37459807,0.95352236,0.57790120
1604404790.62580466,0.00451400,-0.00475800,1.02467800,0.11557257,0.01899305,-0.13462750,0.18380250,-0.14278250,-0.37459807,0.95352236,0.57790120
1604404790.68844891,0.00500200,-0.00732000,1.02150600,0.05319124,-0.37256807,-0.23962750,0.28880250,0.59221750,-0.37284420,0.94606840,0.58097048
1604404790.75110030,0.00524600,-0.00500200,1.05676400,0.04965947,0.34506901,0.00537250,-0.02619750,0.17221750,-0.37489038,0.94899152,0.58871675
1604404790.81373739,0.00390400,-0.00439200,1.02748400,-0.29968177,-0.19867104,-0.16962750,0.35880250,0.52221750,-0.37489038,0.94899152,0.58871675
1604404790.87641978,0.00622200,-0.00390400,1.02260400,-0.06190284,0.06666051,0.25037250,-0.41119750,-0.66778250,-0.36904414,0.94738381,0.58301666
1604404790.93900895,0.00597800,-0.00475800,1.02663000,-0.06693921,-0.11574497,0.00537250,-0.13119750,0.06721750,-0.36904414,0.94738381,0.58301666
1604404791.00171876,0.00536800,-0.00512400,1.05444600,-0.36279664,0.17629614,0.18037250,-0.16619750,-0.14278250,-0.36758258,0.94694534,0.58959369
1604404791.06440401,0.00585600,-0.00366000,1.02443400,-0.23726207,0.44784805,0.07537250,-0.16619750,0.27721750,-0.36787489,0.95059924,0.58067816
1604404791.12695551,0.00475800,-0.00658800,1.02455600,-0.01472876,-0.35077276,0.04037250,-0.13119750,-0.17778250,-0.36787489,0.95059924,0.58067816
1604404791.18965292,0.00524600,-0.00414800,1.02358000,0.03431603,-0.21179211,0.00537250,0.00880250,0.55721750,-0.37240573,0.93905291,0.58287051
1604404791.25228977,0.00597800,-0.00390400,1.05505600,-0.10026789,-0.04742772,-0.09962750,0.46380250,0.52221750,-0.37240573,0.93905291,0.58287051
1604404791.31494951,0.00451400,-0.00622200,1.02394600,-0.27078834,-0.10231730,0.11037250,-0.27119750,-0.45778250,-0.36933645,0.94299912,0.57980123
1604404791.37754440,0.00524600,-0.00585600,1.02345800,0.05991062,0.02474854,0.14537250,-0.13119750,-0.45778250,-0.37737504,0.94475300,0.58403975
1604404791.44024873,0.00622200,-0.00427000,1.02492200,-0.04768565,-0.28722361,-0.13462750,0.18380250,0.38221750,-0.37737504,0.94475300,0.58403975
1604404791.50285959,0.00451400,-0.00475800,1.05542200,0.00173573,0.19653059,-0.13462750,0.21880250,0.13721750,-0.37182110,0.94519146,0.57760889
1604404791.56555557,0.00622200,-0.00524600,1.02419000,0.07287345,-0.40970645,0.07537250,-0.09619750,-0.17778250,-0.37401345,0.94182987,0.58813213
1604404791.62813592,0.00512400,-0.00500200,1.02345800,-0.06115494,-0.21890641,0.04037250,-0.06119750,-0.63278250,-0.37401345,0.94182987,0.58813213
1604404791.69080853,0.00585600,-0.00561200,1.05542200,-0.10053004,0.04730436,-0.13462750,0.21880250,0.34721750,-0.36699795,0.94314528,0.58725519
1604404791.75344157,0.00451400,-0.00451400,1.05395800,-0.04496582,0.16282962,0.04037250,0.18380250,0.34721750,-0.36699795,0.94314528,0.58725519
1604404791.81604385,0.00488000,-0.00488000,1.02309200,-0.01310272,-0.26586249,-0.02962750,0.07880250,-0.42278250,-0.37284420,0.94212219,0.57892429
1604404791.87867594,0.00536800,-0.00597800,1.05542200,-0.25553138,-0.26370881,0.14537250,-0.23619750,-0.63278250,-0.37021339,0.94869921,0.58667056
1604404791.94143629,0.00353800,-0.00402600,1.05444600,0.00792375,0.14900065,0.00537250,0.81380250,0.34721750,-0.37021339,0.94869921,0.58667056
1604404792.00418830,0.00280600,-0.00585600,1.03016800,-0.22970687,0.21002465,0.04037250,-0.06119750,0.10221750,-0.37123648,0.94767612,0.58257819
1604404792.06691813,0.00866200,-0.00695400,1.02797200,-0.02676066,-0.40875992,0.04037250,0.53380250,0.24221750,-0.37123648,0.94767612,0.58257819
1604404792.12966418,0.00292800,-0.00512400,1.02077400,0.23822277,-0.04346843,-0.06462750,1.40880250,0.48721750,-0.37196726,0.94723765,0.58550132
1604404792.19236708,0.00500200,-0.00610000,1.02833800,-0.14222248,-0.04149737,0.00537250,-0.37619750,-0.10778250,-0.37021339,0.94548378,0.58857059
1604404792.25509119,0.00671000,-0.00512400,1.01992000,0.02574340,-0.05739643,0.00537250,-0.55119750,-0.49278250,-0.37021339,0.94548378,0.58857059
1604404792.31775165,0.00378200,-0.00671000,1.02467800,-0.02771507,-0.04926898,-0.16962750,1.82880250,0.41721750,-0.36670564,0.95030693,0.57760889
1604404792.38051963,0.00610000,-0.00707600,1.03480400,-0.19371494,0.29789731,0.04037250,-0.02619750,-0.14278250,-0.36962876,0.94621456,0.58842444
1604404792.44316363,0.00414800,0.02769400,1.01845600,0.30679327,-0.17447659,0.07537250,0.25380250,0.13721750,-0.36962876,0.94621456,0.58842444
1604404792.50587988,0.00402600,-0.00561200,1.02626400,-0.10898921,-0.13738598,-0.02962750,0.28880250,0.31221750,-0.37079801,0.94299912,0.58667056
1604404792.56862259,0.00805200,-0.00488000,1.02833800,-0.03346779,-0.06868930,0.04037250,-0.16619750,-0.24778250,-0.37079801,0.94299912,0.58667056
1604404792.63129330,0.00268400,-0.00451400,1.02443400,0.04727022,-0.07662814,-0.51962750,1.09380250,0.34721750,-0.36787489,0.94752996,0.57950892
1604404792.69397616,0.00390400,-0.00573400,1.01748000,-0.05726460,-0.18172175,-0.02962750,0.11380250,0.17221750,-0.36670564,0.94548378,0.58213973
1604404792.75665569,0.00841800,-0.00427000,1.01955400,0.02565639,-0.00950653,0.18037250,-0.16619750,-0.42278250,-0.36670564,0.94548378,0.58213973
1604404792.81937838,0.00561200,-0.00402600,1.01894400,0.03923467,-0.11254483,0.28537250,-0.30619750,-0.21278250,-0.36802105,0.94548378,0.58579363
1604404792.88205147,0.00292800,-0.00524600,1.02553200,-0.02747400,0.16906718,-0.02962750,0.04380250,-0.00278250,-0.36802105,0.94548378,0.58579363
1604404792.94462109,0.00634400,-0.00549000,1.02589800,-0.04098865,-0.18520985,0.42537250,-0.48119750,-0.14278250,-0.36992108,0.94256065,0.58710903
1604404793.00722814,0.00378200,-0.00780800,1.02626400,-0.17029241,0.05332044,0.56537250,-1.04119750,-0.45778250,-0.36962876,0.94446068,0.58623210
1604404793.06998110,0.00524600,-0.00414800,1.01918800,0.03242998,-0.08503135,-0.13462750,0.07880250,0.03221750,-0.36962876,0.94446068,0.58623210
1604404793.13264275,0.00402600,-0.00634400,1.03041200,-0.08713774,0.13540755,-0.13462750,0.07880250,-0.03778250,-0.36845951,0.94694534,0.59003215
1604404793.19522357,0.00402600,-0.00207400,1.02223800,0.14936941,-0.09778806,-0.55462750,0.81380250,0.31221750,-0.36845951,0.94504531,0.59178603
1604404793.25794363,0.00573400,-0.00512400,1.02370200,-0.02116314,-0.17243187,0.21537250,-0.16619750,-0.35278250,-0.36670564,0.94504531,0.59178603
1604404793.32065868,0.00353800,-0.00719800,1.02126200,-0.13820301,-0.07071111,0.81037250,-1.32119750,-0.38778250,-0.37474423,0.94548378,0.58900906
1604404793.38339305,0.00451400,-0.00536800,1.02760600,-0.03368135,-0.04849137,-0.62462750,1.02380250,0.24221750,-0.37474423,0.94548378,0.58900906
1604404793.44599223,0.00561200,-0.00512400,1.02321400,-0.02129942,-0.18628288,0.49537250,-0.97119750,-0.45778250,-0.36670564,0.94343759,0.58696288
1604404793.50866985,0.00427000,-0.00170800,1.02077400,0.16974543,-0.05716341,1.16037250,-1.84619750,-0.45778250,-0.37313651,0.94752996,0.58930137
1604404793.57130742,0.00561200,-0.00695400,1.02711800,-0.12228881,-0.11666993,-0.37962750,0.53380250,0.34721750,-0.37313651,0.94752996,0.58930137
1604404793.63399339,0.00634400,-0.00366000,1.02114000,0.06025838,-0.17342787,-0.62462750,0.98880250,0.27721750,-0.36816720,0.94358375,0.58126279
1604404793.69673085,0.00512400,-0.00610000,1.02724000,-0.07461705,0.06028484,0.25037250,-0.41119750,-0.07278250,-0.36816720,0.94358375,0.58126279
1604404793.75950336,0.00451400,-0.00512400,1.02504400,-0.02079294,0.03265753,0.46037250,-0.90119750,-0.14278250,-0.37006723,0.94226834,0.58447822
1604404793.82220244,0.00610000,-0.00707600,1.02345800,-0.13050786,-0.04959129,0.60037250,-1.11119750,-0.38778250,-0.37138264,0.94270681,0.59003215
1604404793.88483143,0.00427000,-0.00524600,1.02321400,-0.02813678,0.05281019,0.28537250,-0.34119750,-0.21278250,-0.37138264,0.94270681,0.59003215
1604404793.94747472,0.00488000,-0.00378200,1.02370200,0.05394363,-0.14512256,0.63537250,-0.93619750,-0.49278250,-0.37489038,0.94577609,0.58199357
1604404794.01028585,0.00500200,-0.00451400,1.02236000,0.01264186,-0.05672554,-0.62462750,0.91880250,0.34721750,-0.37489038,0.94577609,0.58199357
1604404794.07292843,0.00427000,-0.00500200,1.02504400,-0.01397297,-0.01507646,-0.79962750,1.33880250,0.34721750,-0.36641333,0.94372990,0.58506285
1604404794.13558340,0.00439200,-0.00561200,1.02541000,-0.03868806,-0.01455393,0.25037250,-0.48119750,-0.28278250,-0.36597486,0.94636071,0.59076293
1604404794.19825840,0.00512400,-0.00488000,1.02589800,-0.00692579,-0.06257176,-0.44962750,0.67380250,0.48721750,-0.36597486,0.94636071,0.59076293
1604404794.26100969,0.00561200,-0.00646600,1.02284800,-0.09696412,-0.09109483,-0.06462750,0.07880250,0.24221750,-0.36582871,0.94256065,0.59237065
1604404794.32364440,0.00488000,-0.00561200,1.02419000,-0.04717401,-0.04839415,0.56537250,-0.93619750,-0.38778250,-0.36568255,0.94913768,0.58535516
1604404794.38628292,0.00451400,-0.00671000,1.02199400,-0.10638403,-0.02665721,0.95037250,-1.53119750,-0.45778250,-0.36568255,0.94913768,0.58535516
1604404794.44887662,0.00427000,-0.00561200,1.02467800,-0.04780716,-0.01487705,-0.02962750,0.21880250,-0.10778250,-0.36831336,0.94592224,0.58477053
1604404794.51151919,0.00671000,-0.00610000,1.02443400,-0.07599049,-0.15217026,-0.55462750,0.91880250,0.27721750,-0.36831336,0.94592224,0.58477053
1604404794.57416582,0.00732000,-0.00451400,1.02467800,0.01197950,-0.18770613,-0.93962750,1.30380250,0.55721750,-0.37123648,0.94928384,0.59529377
1604404794.63680983,0.00500200,-0.00512400,1.02443400,-0.02072297,-0.05592425,0.00537250,0.11380250,0.13721750,-0.37109032,0.95059924,0.58944753
1604404794.69948459,0.00695400,-0.00536800,1.02565400,-0.03353582,-0.16394100,-0.65962750,1.19880250,0.34721750,-0.37109032,0.95059924,0.58944753
1604404794.76223016,0.00488000,-0.00622200,1.02455600,-0.08043269,-0.04781346,0.18037250,-0.34119750,-0.00278250,-0.36919030,0.94153756,0.58213973
1604404794.82486153,0.00524600,-0.00707600,1.02406800,-0.13307336,-0.07198242,-0.41462750,0.70880250,0.20721750,-0.36919030,0.94153756,0.58213973
1604404794.88747215,0.00658800,-0.00585600,1.02614200,-0.06080891,-0.14363115,0.14537250,-0.06119750,-0.21278250,-0.37109032,0.94650687,0.59105525
1604404794.95031762,0.00756400,-0.00512400,1.02504400,-0.02229436,-0.20141446,-0.34462750,0.84880250,0.27721750,-0.37576732,0.94431453,0.58900906
1604404795.01297855,0.00549000,-0.00573400,1.02382400,-0.05630305,-0.08462321,-0.37962750,0.60380250,0.31221750,-0.37576732,0.94431453,0.58900906
1604404795.07559514,0.00585600,-0.00524600,1.02602000,-0.02666966,-0.10267534,0.14537250,-0.16619750,-0.03778250,-0.37430576,0.94533762,0.58681672
1604404795.13828540,0.00573400,-0.00463600,1.02492200,0.00756103,-0.09557618,-0.02962750,0.25380250,0.13721750,-0.37006723,0.94182987,0.58798597
1604404795.20095301,0.00500200,-0.00634400,1.02528800,-0.09054956,-0.05722551,0.28537250,-0.37619750,-0.03778250,-0.37006723,0.94182987,0.58798597
1604404795.26357937,0.00658800,-0.00488000,1.02248200,-0.00702083,-0.14446297,0.14537250,-0.16619750,-0.31778250,-0.37328267,0.94577609,0.58754750
1604404795.32645202,0.00573400,-0.00524600,1.02431200,-0.02580557,-0.09493349,0.46037250,-0.79619750,-0.07278250,-0.37328267,0.94577609,0.58754750
1604404795.38917089,0.00573400,-0.00463600,1.02419000,0.00780547,-0.09527384,0.11037250,-0.13119750,-0.03778250,-0.36860567,0.94431453,0.58623210
1604404795.45190406,0.00524600,-0.00622200,1.02309200,-0.08495723,-0.07198404,0.42537250,-0.41119750,-0.24778250,-0.36743642,0.94855305,0.58783981
1604404795.51460028,0.00536800,-0.00536800,1.02480000,0.17616571,-0.07915371,-0.23962750,0.56880250,0.31221750,-0.36743642,0.94855305,0.58783981
1604404795.57728338,0.00695400,-0.00463600,1.02553200,-0.34662865,-0.16415422,0.39037250,-0.55119750,-0.24778250,-0.37576732,0.94519146,0.58754750
1604404795.64005303,0.00561200,-0.00658800,1.02236000,0.01288391,-0.09061036,0.11037250,-0.13119750,0.06721750,-0.37576732,0.94519146,0.58754750
1604404795.70272112,0.00573400,-0.00610000,1.02492200,0.10875401,-0.09694592,-0.30962750,0.28880250,0.34721750,-0.36992108,0.94519146,0.58886291
1604404795.76548815,0.00597800,-0.00561200,1.02358000,-0.08245042,-0.11081957,0.53037250,-0.83119750,-0.31778250,-0.36831336,0.94460684,0.58725519
1604404795.82810020,0.00634400,-0.00463600,1.02528800,-0.08129270,-0.13011376,-0.41462750,0.53380250,0.27721750,-0.36831336,0.94460684,0.58725519
1604404795.89080262,0.00610000,-0.00536800,1.02614200,0.04058195,-0.11736356,0.14537250,-0.30619750,-0.00278250,-0.36816720,0.94782227,0.58287051
1604404795.95349669,0.00427000,-0.00488000,1.02382400,-0.11512536,-0.01436599,0.49537250,-0.51619750,-0.21278250,-0.36816720,0.94869921,0.58316282
1604404796.01617455,0.00427000,-0.00610000,1.02419000,0.04630279,-0.01627661,-0.13462750,0.14880250,0.17221750,-0.36670564,0.94869921,0.58316282
1604404796.07884693,0.00488000,-0.00671000,1.02406800,-0.13218178,1.70519368,0.18037250,-0.27119750,-0.31778250,-0.37021339,0.94855305,0.58915522
1604404796.14148521,0.00524600,-0.00341600,1.02345800,-0.06248585,-0.07032737,0.18037250,-0.16619750,-0.03778250,-0.37021339,0.94855305,0.58915522
1604404796.20414162,0.00427000,-0.00561200,1.02419000,-0.19083125,-0.01484470,0.18037250,-0.16619750,-0.17778250,-0.36962876,0.95001462,0.58403975
1604404796.26679659,0.00451400,-0.00488000,1.02492200,0.15595800,-0.02998477,-0.23962750,0.39380250,0.20721750,-0.36582871,0.94504531,0.58842444
1604404796.32950521,0.00610000,-0.00427000,1.02443400,-0.03579057,-0.11891050,0.11037250,-0.30619750,-0.07278250,-0.36582871,0.94504531,0.58842444
1604404796.39222407,0.00317200,-0.00780800,1.02394600,-0.22776909,0.04543078,-0.09962750,0.25380250,-0.03778250,-0.37269804,0.94665303,0.58754750
1604404796.45483375,0.00549000,-0.00524600,1.02480000,0.10754969,-0.08566205,-0.09962750,0.04380250,-0.00278250,-0.37269804,0.94665303,0.58754750
1604404796.51745844,0.00610000,-0.00524600,1.02602000,-0.32426425,-0.11541145,0.35537250,-0.48119750,-0.24778250,-0.36802105,0.94592224,0.58783981
1604404796.58019733,0.00488000,-0.00524600,1.02577600,0.00540107,-0.05031331,-0.06462750,0.39380250,-0.00278250,-0.36845951,0.94796843,0.59017831
1604404796.64273000,0.00524600,-0.00439200,1.02358000,0.14295573,-0.06942262,0.18037250,-0.23619750,-0.14278250,-0.36845951,0.94796843,0.59017831
1604404796.70541191,0.00390400,-0.00463600,1.02431200,-0.12895742,0.00590165,0.25037250,-0.37619750,-0.17778250,-0.37021339,0.94855305,0.59120140
1604404796.76811218,0.00463600,-0.00561200,1.02504400,-0.09196073,-0.03770876,-0.06462750,0.04380250,0.03221750,-0.37021339,0.94855305,0.59120140
1604404796.83078146,0.00707600,-0.00719800,1.02602000,0.02637582,-0.17285859,-0.20462750,0.32380250,-0.07278250,-0.36509792,0.94562993,0.58915522
1604404796.89333844,0.00317200,-0.00390400,1.02394600,0.21812196,0.04719644,0.25037250,-0.41119750,-0.14278250,-0.36539024,0.94723765,0.58681672
1604404796.95589542,0.00622200,-0.00549000,1.02553200,-0.04172174,-0.12471916,-0.20462750,0.18380250,-0.00278250,-0.36539024,0.94723765,0.58681672
1604404797.01839399,0.00695400,-0.00414800,1.02577600,0.10207152,-0.16482042,0.18037250,-0.37619750,-0.03778250,-0.36305174,0.94314528,0.58097048
1604404797.08096099,0.00549000,-0.00561200,1.02480000,-0.14041428,1.65159615,0.39037250,-0.48119750,-0.24778250,-0.36524408,0.94446068,0.57994738
1604404797.14364290,0.00610000,-0.00463600,1.02492200,-0.00049074,-0.11756553,-0.09962750,0.07880250,0.24221750,-0.36524408,0.94446068,0.57994738
1604404797.20625019,0.00597800,-0.00390400,1.02455600,-0.26882470,-0.10788930,0.32037250,-0.48119750,-0.07278250,-0.36889798,0.94533762,0.58593978
1604404797.26897407,0.00500200,-0.00939400,1.02406800,-0.18822642,-0.05833432,-0.27462750,0.49880250,0.06721750,-0.36889798,0.94533762,0.58593978
1604404797.33155632,0.00719800,-0.00280600,1.02272600,0.18347140,-0.18027505,0.32037250,-0.20119750,-0.31778250,-0.37035954,0.94738381,0.58652441
1604404797.39427090,0.00549000,-0.00695400,1.02309200,-0.34163407,-0.08343625,0.42537250,-0.55119750,-0.28278250,-0.36802105,0.94577609,0.58915522
1604404797.45693541,0.00256200,-0.00268400,1.02443400,0.19100135,0.08115287,-0.20462750,0.42880250,0.13721750,-0.36802105,0.94577609,0.58915522
1604404797.51952600,0.00841800,-0.00402600,1.02516600,-0.12145514,-0.24496387,0.25037250,-0.48119750,-0.24778250,-0.36919030,0.94577609,0.58126279
1604404797.58213210,0.00500200,-0.00561200,1.02455600,0.25203996,-0.05466954,0.11037250,-0.09619750,0.10221750,-0.36919030,0.94577609,0.58126279
1604404797.64460468,0.00244000,-0.00366000,1.02358000,0.15568109,0.08617900,-0.23962750,0.35880250,0.06721750,-0.36904414,0.94387606,0.58520900
1604404797.70724678,0.00805200,-0.00671000,1.02431200,0.08704284,-0.22970456,0.18037250,-0.30619750,-0.00278250,-0.36743642,0.94168372,0.58652441
1604404797.77003622,0.00744200,-0.00402600,1.02492200,-0.04986490,-0.19475887,0.21537250,-0.09619750,0.03221750,-0.36743642,0.94168372,0.58652441
1604404797.83415818,0.00207400,-0.00561200,1.02028600,-0.13174344,0.14138370,-0.02962750,1.16380250,0.55721750,-0.36802105,0.94066063,0.58915522
1604404797.89828515,0.00597800,-0.00634400,1.02333600,-0.08956846,-0.17940107,-0.34462750,0.60380250,0.03221750,-0.36597486,0.94095294,0.58316282
1604404797.96156287,0.00500200,-0.00451400,1.02333600,0.01164177,-0.05783375,0.14537250,0.07880250,-0.14278250,-0.36597486,0.94095294,0.58316282
1604404798.02448106,0.00988200,-0.00866200,1.02968000,-0.21480654,-0.32449219,0.60037250,-0.09619750,-0.07278250,-0.37021339,0.94241450,0.58871675
1604404798.08733416,0.00000000,0.00561200,1.02553200,0.57967235,0.22359491,0.18037250,0.14880250,0.06721750,-0.37021339,0.94241450,0.58871675
1604404798.15085745,-0.00292800,-0.00573400,1.02577600,-0.16997343,-1.35559349,0.00537250,-0.09619750,-0.00278250,-0.36524408,0.94387606,0.58257819
1604404798.21224475,0.01146800,-0.01134600,1.02492200,-0.37223489,-0.42111265,0.11037250,0.00880250,-0.10778250,-0.37035954,0.94621456,0.58520900
1604404798.27358460,0.00536800,0.00000000,1.02236000,0.26561379,0.14838569,0.00537250,0.25380250,0.06721750,-0.37035954,0.94621456,0.58520900
1604404798.33489490,-0.00146400,-0.01366400,1.02370200,-0.49809856,0.37495701,-0.06462750,0.07880250,-0.28278250,-0.37299035,0.94270681,0.58740134
1604404798.39627600,0.00744200,-0.00158600,1.02358000,0.24513692,-0.19277164,0.07537250,0.14880250,-0.03778250,-0.37299035,0.94270681,0.58740134
1604404798.45763516,0.00610000,-0.00280600,1.02297000,0.10845503,-0.11805617,-0.20462750,0.11380250,-0.00278250,-0.36349021,0.94358375,0.58228588
1604404798.51895046,0.00170800,-0.01256600,1.02211600,-0.54131566,0.23043307,0.04037250,-0.16619750,-0.00278250,-0.36568255,0.94256065,0.58900906
1604404798.58034110,0.00646600,0.00427000,1.02553200,0.49776955,-0.07684253,-0.23962750,0.39380250,0.10221750,-0.36568255,0.94256065,0.58900906
1604404798.64168048,0.00390400,-0.01049200,1.02406800,-0.31838894,0.00629481,0.04037250,-0.23619750,-0.03778250,-0.36202865,0.94665303,0.58667056
1604404798.70305300,0.00744200,-0.00524600,1.02565400,-0.02743104,-0.20575199,0.49537250,-0.44619750,-0.17778250,-0.36202865,0.94665303,0.58667056
1604404798.76442623,0.00305000,0.00353800,1.02675200,0.42219524,-0.00106574,-0.20462750,0.21880250,0.06721750,-0.36612102,0.94256065,0.58696288
1604404798.82586980,-0.00024400,-0.01232200,1.02419000,-0.32546338,0.16924394,0.14537250,-0.06119750,-0.66778250,-0.36349021,0.94372990,0.58228588
1604404798.88845587,0.00793000,0.00341600,1.02504400,0.51849371,-0.11813563,0.46037250,-0.06119750,0.38221750,-0.36349021,0.94372990,0.58228588
1604404798.95099783,-0.00085400,-0.00890600,1.02699600,-0.49172990,0.44192239,0.11037250,-0.27119750,-0.21278250,-0.37079801,0.94475300,0.58374744
1604404799.01366973,-0.00292800,-0.00732000,1.02516600,-0.04706461,0.40712293,0.35537250,-0.20119750,0.62721750,-0.37079801,0.94475300,0.58374744
1604404799.07624364,0.01171200,0.00719800,1.02516600,0.61680140,-0.38926977,-0.34462750,0.39380250,0.17221750,-0.36962876,0.94372990,0.58067816
1604404799.13884521,-0.00012200,-0.01610400,1.02541000,-0.69092831,0.44222348,-0.06462750,0.46380250,-0.03778250,-0.36641333,0.94446068,0.58637825
1604404799.20144796,0.00134200,0.00536800,1.02406800,0.64563341,0.37288741,0.28537250,-0.20119750,-0.21278250,-0.36641333,0.94446068,0.58637825
1604404799.26407838,0.00500200,-0.00610000,1.02358000,-0.40777842,0.01273910,-0.02962750,-0.13119750,-0.03778250,-0.36451330,0.94489915,0.58623210
1604404799.32661271,0.00292800,-0.01012600,1.02394600,-0.40412534,0.28447891,0.39037250,-0.16619750,-0.21278250,-0.36904414,0.94270681,0.59047062
1604404799.38923311,0.00158600,0.00622200,1.02382400,0.82985089,0.13522181,-0.44962750,0.42880250,0.20721750,-0.36904414,0.94270681,0.59047062
1604404799.45178413,0.00244000,-0.01342000,1.02345800,-0.57628146,1.82606291,-0.02962750,0.14880250,-0.10778250,-0.37152879,0.94226834,0.59280912
1604404799.51430798,0.00353800,0.00366000,1.02516600,0.37403791,0.02707591,0.00537250,-0.06119750,0.03221750,-0.37152879,0.94226834,0.59280912
1604404799.57686973,0.00622200,-0.00561200,1.02358000,-0.34247508,1.62436227,0.28537250,-0.62119750,-0.24778250,-0.36407483,0.94066063,0.58710903
1604404799.63943458,0.00183000,-0.00805200,1.02309200,-0.08957668,0.12113672,0.28537250,-0.02619750,-0.10778250,-0.36407483,0.94402222,0.58769366
1604404799.70210600,0.00280600,0.00524600,1.02272600,0.27240719,0.06734643,0.14537250,-0.23619750,-0.14278250,-0.36407483,0.94402222,0.58769366
1604404799.76469660,0.00683200,-0.01634800,1.02492200,-0.44710392,-0.16016914,-0.27462750,0.46380250,0.20721750,-0.36246711,0.94723765,0.57702426
1604404799.82724190,0.00402600,0.00378200,1.02516600,0.45506678,1.73262438,0.32037250,-0.20119750,-0.17778250,-0.36246711,0.94723765,0.57702426
1604404799.88989902,0.00073200,-0.00695400,1.02467800,-0.61833079,1.92367034,0.21537250,-0.58619750,-0.24778250,-0.36772873,0.94036831,0.57629348
1604404799.95251393,0.00646600,-0.00768600,1.02626400,0.07470054,-0.13777832,0.14537250,-0.20119750,-0.14278250,-0.36992108,0.94679918,0.58345513
1604404800.01503587,0.00219600,0.00439200,1.02284800,0.49868883,0.10020248,-0.37962750,0.49880250,0.27721750,-0.36992108,0.94679918,0.58345513
1604404800.07759380,0.00195200,-0.01415200,1.02333600,-0.56381356,0.11482128,0.00537250,0.00880250,-0.00278250,-0.36465946,0.94884537,0.58023970
1604404800.14022303,0.00414800,0.00390400,1.02394600,0.43564923,-0.00765359,0.32037250,-0.37619750,-0.17778250,-0.36465946,0.94884537,0.58023970
1604404800.20278955,0.00146400,-0.00744200,1.02370200,-0.30447408,0.14215510,-0.23962750,0.32380250,0.10221750,-0.36407483,0.94066063,0.58272435
1604404800.26539207,0.00341600,-0.00646600,1.02260400,0.19037806,0.03208548,-0.09962750,0.46380250,0.24221750,-0.36743642,0.93992985,0.57570886
1604404800.32792926,0.00366000,0.00146400,1.02382400,0.13618672,0.01923613,0.00537250,0.00880250,-0.28278250,-0.36743642,0.93992985,0.57570886
1604404800.39071369,0.00061000,-0.01232200,1.02358000,-0.50685127,0.18941607,0.14537250,-0.41119750,-0.14278250,-0.36495177,0.94066063,0.58520900
1604404800.45332837,0.00475800,0.00329400,1.02358000,0.43767078,-0.04481458,-0.06462750,0.18380250,0.10221750,-0.36860567,0.94314528,0.58170126
1604404800.51590276,0.00134200,-0.00646600,1.02223800,-0.29655586,0.14909167,0.11037250,-0.41119750,-0.28278250,-0.36860567,0.94314528,0.58170126
1604404800.57849526,0.00207400,-0.00561200,1.02309200,0.02565490,0.10704371,0.21537250,-0.27119750,-0.17778250,-0.36962876,0.94738381,0.58447822
1604404800.64112568,0.00622200,-0.00048800,1.02406800,0.15701117,-0.12257782,0.28537250,-0.62119750,-0.14278250,-0.36962876,0.94738381,0.58447822
1604404800.70370555,0.00195200,-0.01049200,1.02162800,-0.32124374,0.11441396,0.56537250,-0.86619750,-0.35278250,-0.36465946,0.94416837,0.58915522
1604404800.76636457,0.00463600,0.00158600,1.02284800,-1.39971400,-0.03679095,0.18037250,-0.34119750,-0.10778250,-0.36305174,0.94139141,0.58462438
1604404800.82894802,0.00622200,-0.00695400,1.02284800,0.05277642,-0.12655826,-0.30962750,0.53380250,0.10221750,-0.36305174,0.94139141,0.58462438
1604404800.89158010,0.00244000,-0.00475800,1.02211600,0.00120563,0.08800134,0.42537250,-0.65619750,-0.24778250,-0.36422099,0.93832213,0.58433207
1604404800.95417786,0.00475800,-0.00097600,1.02394600,1.96926095,-0.04427885,-0.44962750,0.46380250,0.20721750,-0.36422099,0.93832213,0.58433207
1604404801.01670122,0.00646600,-0.00817400,1.02602000,-0.29321606,0.04640748,0.35537250,-0.37619750,-0.21278250,-0.36480561,0.94314528,0.58126279
1604404801.08188200,0.00061000,0.00024400,1.02992400,0.11630294,0.56293935,0.11037250,-0.20119750,0.24221750,-0.37006723,0.93612979,0.58550132
1604404801.14446592,0.00488000,-0.00817400,1.02577600,-0.00013141,-0.40330146,-0.09962750,-0.44619750,-0.07278250,-0.37006723,0.93612979,0.58550132
1604404801.20714116,0.00231800,-0.00268400,1.03212000,0.13016321,0.31841027,0.14537250,0.25380250,0.10221750,-0.36612102,0.94182987,0.58593978
1604404801.26968312,0.00317200,-0.00512400,1.02138400,-0.13131415,0.01828856,0.04037250,-0.23619750,0.06721750,-0.36334405,0.94329144,0.57892429
1604404801.33221984,0.00719800,-0.00585600,1.02492200,-0.27997538,0.42818819,0.14537250,0.25380250,0.24221750,-0.36334405,0.94329144,0.57892429
1604404801.39483380,0.00146400,-0.00097600,1.01382000,0.36903296,-0.19008517,-0.13462750,-0.37619750,-0.24778250,-0.36188249,0.94139141,0.58696288
1604404801.45740795,0.00317200,-0.00976000,1.02406800,-0.11662249,-0.00165038,0.25037250,-1.11119750,-0.28278250,-0.36188249,0.94139141,0.58696288
1604404801.51995969,0.00610000,-0.00183000,1.02394600,0.15653483,-0.25363076,-0.09962750,0.21880250,0.59221750,-0.37225957,0.94066063,0.58593978
1604404801.58253455,-0.00061000,-0.00573400,1.02358000,0.00524466,-0.00936678,-0.02962750,0.11380250,-0.66778250,-0.36772873,0.94168372,0.58988600
1604404801.64508867,0.00536800,-0.00658800,1.05517800,0.04879526,-0.14906366,-0.02962750,0.04380250,0.69721750,-0.36772873,0.94168372,0.58988600
1604404801.70772362,0.00439200,-0.00207400,1.02528800,0.27242091,0.05341667,-0.13462750,0.18380250,0.94221750,-0.36290558,0.94022216,0.58462438
1604404801.77030849,-0.00012200,-0.00634400,1.02406800,0.17619049,-0.35422673,-0.09962750,0.11380250,-0.03778250,-0.36290558,0.94022216,0.58462438
1604404801.83284855,0.00366000,-0.00231800,1.02309200,0.00651336,0.11450030,0.04037250,-0.09619750,0.59221750,-0.36436714,0.94738381,0.58418591
1604404801.89542842,0.00317200,-0.00378200,1.02455600,0.37581621,-0.47207456,-0.34462750,0.39380250,0.24221750,-0.36948261,0.94942999,0.58637825
1604404801.95801473,0.00134200,-0.00732000,1.02345800,0.11454874,-0.07853623,-0.06462750,0.14880250,-0.03778250,-0.36948261,0.94942999,0.58637825
1604404802.02054310,0.00597800,-0.00317200,1.02406800,0.25874168,-0.36741652,-0.23962750,0.46380250,-0.31778250,-0.36772873,0.94402222,0.58301666
1604404802.08308291,0.00170800,-0.00475800,1.02333600,-0.06327387,0.36748262,-0.06462750,0.11380250,-0.28278250,-0.36772873,0.94504531,0.58696288
1604404802.14562154,0.00390400,-0.00427000,1.02492200,0.10944401,-0.21775828,0.25037250,-0.23619750,0.10221750,-0.36582871,0.94504531,0.58696288
1604404802.20810461,0.00402600,-0.00402600,1.02589800,0.00556018,-0.18701815,-0.20462750,0.14880250,0.17221750,-0.36641333,0.94592224,0.58608594
1604404802.27071881,0.00268400,-0.00524600,1.02406800,-0.14300239,0.25764597,0.28537250,-0.62119750,-0.10778250,-0.36641333,0.94592224,0.58608594
1604404802.33327031,0.00378200,-0.00524600,1.02358000,0.07378703,-0.11895427,-0.20462750,0.21880250,0.06721750,-0.36100555,0.94636071,0.58769366
1604404802.39585638,0.00451400,-0.00414800,1.02443400,-0.25684609,0.17609921,0.00537250,0.11380250,-0.14278250,-0.36363636,0.94431453,0.58667056
1604404802.45842552,0.00219600,-0.00402600,1.02419000,0.03401698,1.84498451,0.18037250,-0.06119750,-0.03778250,-0.36363636,0.94431453,0.58667056
1604404802.52097750,0.00378200,-0.00378200,1.02370200,0.16963022,0.01105948,-0.27462750,0.28880250,0.27721750,-0.36436714,0.94372990,0.57965507
1604404802.58361387,0.00390400,-0.00622200,1.02431200,-0.10700072,0.00680202,0.39037250,-0.44619750,-0.17778250,-0.36436714,0.94372990,0.57965507
1604404802.64618087,0.00256200,-0.00292800,1.02382400,-0.06374651,0.07950042,-0.13462750,0.39380250,0.03221750,-0.36012862,0.94752996,0.58287051
1604404802.70872164,0.00475800,-0.00439200,1.02431200,0.17052943,-0.04128376,0.14537250,-0.16619750,-0.21278250,-0.36612102,0.94533762,0.58769366
1604404802.77121353,0.00305000,-0.00341600,1.02333600,-0.14192885,1.79281699,0.35537250,-0.44619750,-0.17778250,-0.36612102,0.94533762,0.58769366
1604404802.83376026,0.00085400,-0.00378200,1.02284800,0.14213174,0.17557414,-0.20462750,0.42880250,0.24221750,-0.36188249,0.94285297,0.58403975
1604404802.89644051,0.00488000,-0.00427000,1.02467800,0.07428195,1.69974392,0.21537250,-0.16619750,-0.07278250,-0.36188249,0.94285297,0.58403975
1604404802.95903349,0.00268400,-0.00500200,1.02431200,0.26561379,0.07454627,-0.16962750,0.25380250,0.10221750,-0.36670564,0.94387606,0.58783981
1604404803.02150321,0.00366000,-0.00463600,1.02516600,0.17679435,0.01862663,0.07537250,-0.27119750,-0.07278250,-0.36509792,0.94314528,0.58316282
1604404803.08399153,0.00390400,-0.00451400,1.02443400,-0.13485673,0.00639181,0.00537250,0.11380250,0.03221750,-0.36509792,0.94314528,0.58316282
1604404803.14652777,0.00305000,-0.00488000,1.02443400,-0.00826331,0.05242212,0.18037250,-0.02619750,-0.10778250,-0.36305174,0.94329144,0.58667056
1604404803.20908189,0.00329400,-0.00524600,1.02321400,-0.02622282,0.04034915,0.18037250,-0.23619750,0.13721750,-0.37050570,0.94562993,0.58301666
1604404803.27156663,0.00451400,-0.00341600,1.02175000,0.07533262,-0.02784840,0.04037250,-0.06119750,-0.07278250,-0.37050570,0.94562993,0.58301666
1604404803.33410454,0.00244000,-0.00451400,1.02345800,0.01136531,0.08616362,-0.58962750,0.91880250,0.34721750,-0.36626717,0.94387606,0.59178603
1604404803.39667869,0.00439200,-0.00378200,1.02455600,0.05320712,-0.02307110,0.32037250,-0.48119750,-0.14278250,-0.36626717,0.94387606,0.59178603
1604404803.45937729,0.00292800,-0.00427000,1.02382400,0.02713923,0.06006975,-0.16962750,0.07880250,-0.21278250,-0.36202865,0.94840690,0.58608594
1604404803.52192879,0.00256200,-0.00549000,1.02297000,-0.04282945,0.07965527,0.07537250,0.00880250,-0.24778250,-0.36246711,0.94519146,0.59237065
1604404803.58444810,0.00353800,-0.00451400,1.02382400,0.01118303,0.02417646,-0.41462750,0.91880250,0.31221750,-0.36246711,0.94519146,0.59237065
1604404803.64701295,0.00317200,-0.00414800,1.02589800,0.03334522,0.04597797,0.18037250,-0.13119750,-0.14278250,-0.36889798,0.94446068,0.58769366
