timestamp,ax,ay,az,roll,pitch,wx,wy,wz,mx,my,mz
1605536951.48824763,-0.00536800,-0.00036600,1.02345800,-0.07540811,0.00636145,-0.00656250,-0.28379750,-0.15317750,-0.03215434,-1.57731657,-0.02820813
1605536951.55097961,-0.00512400,-0.00122000,1.02577600,0.07475486,0.10808215,-0.11156250,1.25620250,-0.01317750,-0.03215434,-1.57731657,-0.02820813
1605536951.61277080,-0.00378200,-0.00207400,1.02663000,-0.16523950,0.00064712,-0.21656250,0.62620250,0.12682250,-0.03814674,-1.57278574,-0.02046185
1605536951.67425346,-0.00463600,0.00207400,1.02602000,0.14975431,0.04684577,-0.00656250,-0.10879750,0.12682250,-0.03449284,-1.57351652,-0.02820813
1605536951.73579478,-0.00512400,-0.00012200,1.02699600,-0.00696862,0.08047712,-0.21656250,0.62620250,0.19682250,-0.03449284,-1.57351652,-0.02820813
1605536951.79734755,-0.00524600,0.00036600,1.02650800,0.04073706,0.19303298,-0.14656250,0.34620250,0.09182250,-0.03288512,-1.57293189,-0.03054662
1605536951.85881877,-0.00500200,-0.00073200,1.02589800,-0.00719795,0.06843155,-0.25156250,0.87120250,-0.01317750,-0.03770827,-1.57439345,-0.03083894
1605536951.92024660,-0.00341600,-0.00170800,1.03090000,-0.06105722,0.13361124,-0.00656250,-0.17879750,0.05682250,-0.03770827,-1.57439345,-0.03083894
1605536951.98167348,-0.00390400,0.00000000,1.02821600,-0.08921435,0.01346008,-0.04156250,0.34620250,-0.15317750,-0.02513885,-1.57000877,-0.03653902
1605536952.04312181,-0.00292800,-0.00207400,1.02638600,1.65073450,-0.04985119,-0.14656250,0.73120250,-0.01317750,-0.02513885,-1.57000877,-0.03653902
1605536952.10458183,-0.00305000,0.00024400,1.02846000,0.04746191,0.15482127,-0.35656250,1.39620250,0.12682250,-0.03887752,-1.57337036,-0.03420053
1605536952.16603851,-0.00378200,-0.00061000,1.01882200,-0.12392745,0.24747900,0.06343750,-0.94879750,-0.46817750,-0.03273897,-1.57790120,-0.02470038
1605536952.22881722,-0.00292800,-0.00085400,1.02675200,-0.00017090,-0.21900089,-0.07656250,0.10120250,-0.39817750,-0.03273897,-1.57790120,-0.02470038
1605536952.29173493,-0.00280600,-0.00122000,1.02480000,-0.21726978,0.24936272,-0.18156250,0.41620250,0.30182250,-0.03463899,-1.56971646,-0.03303128
1605536952.35456276,-0.00402600,-0.00024400,1.02650800,0.04753666,0.02015985,0.02843750,0.20620250,-0.08317750,-0.03683134,-1.57424730,-0.02762350
1605536952.41724253,-0.00439200,-0.00024400,1.02736200,0.02014880,0.07592996,-0.21656250,0.48620250,-0.04817750,-0.03683134,-1.57424730,-0.02762350
1605536952.48008370,-0.00512400,0.00012200,1.02589800,0.03386888,0.00633580,-0.28656250,0.66120250,0.51182250,-0.03931599,-1.57234727,-0.02864659
1605536952.54270649,-0.00439200,-0.00109800,1.02748400,0.25863717,-0.23943750,-0.21656250,0.73120250,0.26682250,-0.03332359,-1.57059339,-0.03098509
1605536952.60540938,-0.00561200,-0.00097600,1.02492200,0.10172972,0.09996838,0.02843750,0.27620250,0.02182250,-0.03332359,-1.57059339,-0.03098509
1605536952.66805506,-0.00500200,-0.00109800,1.02614200,0.03386888,0.06669920,-0.25156250,0.76620250,0.16182250,-0.03127740,-1.57205495,-0.02309266
1605536952.73092413,-0.00402600,0.00024400,1.02711800,-0.14875053,0.01100876,-0.21656250,0.45120250,0.26682250,-0.03127740,-1.57205495,-0.02309266
1605536952.79364729,-0.00439200,-0.00024400,1.02687400,0.02032711,0.03155979,-0.35656250,0.94120250,0.12682250,-0.03127740,-1.57147033,-0.02601578
1605536952.85627675,-0.00524600,0.00061000,1.02748400,0.06793656,0.08079037,-0.28656250,0.52120250,0.12682250,-0.03493131,-1.57527039,-0.02850044
1605536952.91887426,-0.00524600,-0.00195200,1.02724000,-0.07179273,0.07177366,-0.21656250,0.52120250,0.16182250,-0.03493131,-1.57527039,-0.02850044
1605536952.98155618,-0.00378200,0.00036600,1.02541000,0.05431930,0.03321282,-0.32156250,0.52120250,0.26682250,-0.02908506,-1.57643964,-0.03566209
1605536953.04429007,-0.00524600,0.00024400,1.02663000,0.04748630,0.02611255,-0.35656250,0.87120250,0.23182250,-0.03127740,-1.57410114,-0.02674657
1605536953.10690784,-0.00402600,-0.00134200,1.02675200,-0.04101750,0.10096978,-0.07656250,0.24120250,0.19682250,-0.03127740,-1.57410114,-0.02674657
1605536953.16951013,-0.00390400,0.03013400,1.02577600,0.07475549,-0.19174963,-0.18156250,-0.17879750,-0.18817750,-0.03405437,-1.57687811,-0.02864659
1605536953.23222876,-0.00463600,0.02964600,1.01967600,0.03386888,0.04830295,-0.00656250,-0.66879750,-0.11817750,-0.03522362,-1.57117802,-0.02966969
1605536953.29505372,-0.00475800,-0.00085400,1.01906600,0.04758739,-0.43168963,-0.07656250,-0.70379750,-0.32817750,-0.03522362,-1.57117802,-0.02966969
1605536953.35780001,-0.00329400,-0.00207400,1.02785000,0.06787224,-0.09658145,-0.18156250,0.41620250,-0.01317750,-0.03887752,-1.57059339,-0.02981584
1605536953.42047119,-0.00573400,-0.00048800,1.05676400,-0.01358929,-0.06303853,-0.11156250,0.66120250,0.02182250,-0.03887752,-1.57059339,-0.02981584
1605536953.48328424,-0.00488000,0.00000000,1.02480000,-0.06898270,0.03465149,-0.04156250,0.13620250,0.09182250,-0.04194680,-1.56752412,-0.02703888
1605536953.54609418,-0.00488000,-0.00109800,1.02650800,0.10916776,-0.08213116,-0.11156250,0.24120250,-0.29317750,-0.03390821,-1.57322420,-0.03171587
1605536953.60879731,-0.00366000,-0.00231800,1.02626400,0.04065171,0.16086535,-0.18156250,0.69620250,0.09182250,-0.03390821,-1.57322420,-0.03171587
1605536953.67142749,-0.00414800,-0.00036600,1.02626400,-0.19167512,0.02018578,-0.00656250,0.27620250,-0.04817750,-0.03975446,-1.57702426,-0.02616194
1605536953.73413157,-0.00451400,-0.00085400,1.02724000,0.06122723,0.04087258,0.06343750,0.31120250,0.02182250,-0.03902368,-1.57468576,-0.03653902
1605536953.79677558,-0.00402600,-0.00036600,1.02589800,-0.33909825,0.01158634,0.27343750,-0.17879750,-0.15317750,-0.03902368,-1.57468576,-0.03653902
1605536953.85966372,-0.00451400,-0.00122000,1.02577600,0.05437051,0.04066131,0.06343750,0.20620250,0.02182250,-0.03858521,-1.57702426,-0.03361590
1605536953.92236924,-0.00439200,-0.00024400,1.02687400,0.02024014,0.03312526,-0.00656250,0.06620250,-0.01317750,-0.03697749,-1.57936276,-0.02893891
1605536953.98515010,-0.00475800,-0.00158600,1.02675200,-0.05429833,0.05230954,-0.39156250,0.76620250,0.26682250,-0.03697749,-1.57936276,-0.02893891
1605536954.04779172,-0.00536800,-0.00109800,1.02675200,-0.02755515,0.08810364,-0.42656250,0.59120250,0.19682250,-0.03624671,-1.57161649,-0.03054662
1605536954.11046243,-0.00390400,-0.00085400,1.02724000,-0.01376383,0.00555712,-0.56656250,1.11620250,0.37182250,-0.03624671,-1.57161649,-0.03054662
1605536954.17317104,-0.00451400,-0.00012200,1.02675200,0.02706103,0.10777779,-0.00656250,0.48620250,0.02182250,-0.03054662,-1.57147033,-0.03142356
1605536954.23574090,-0.00353800,-0.00097600,1.02431200,-0.02072418,-0.01429271,0.02843750,-0.00379750,-0.11817750,-0.03610056,-1.57439345,-0.03083894
1605536954.29837608,-0.00439200,-0.00134200,1.02663000,-0.04102679,0.03972963,-0.53156250,1.15120250,0.23182250,-0.03610056,-1.57439345,-0.03083894
1605536954.36116338,-0.00292800,-0.00024400,1.03248600,-0.11507321,-0.01586001,-0.11156250,0.66120250,0.23182250,-0.03522362,-1.57176264,-0.02396960
1605536954.42389512,-0.00439200,-0.03086600,1.02589800,-0.08877561,-0.03503963,-0.07656250,0.06620250,-0.01317750,-0.03975446,-1.57278574,-0.03507746
1605536954.48663449,-0.00402600,-0.00183000,1.02223800,0.05438242,0.19808130,-0.18156250,0.83620250,0.05682250,-0.03975446,-1.57278574,-0.03507746
1605536954.54926038,-0.00549000,-0.00085400,1.02699600,0.15644107,-0.18495469,-0.18156250,0.48620250,0.16182250,-0.03303128,-1.57249342,-0.03113125
1605536954.61195230,-0.00414800,0.00170800,1.02467800,-0.19036236,0.12755250,-0.04156250,0.45120250,0.19682250,-0.03463899,-1.56971646,-0.03273897
1605536954.67478776,-0.00390400,-0.00097600,1.02565400,-0.21205986,0.10204996,0.06343750,0.20620250,0.09182250,-0.03463899,-1.56971646,-0.03273897
1605536954.73763847,-0.00317200,-0.00122000,1.02541000,0.04746219,-0.22578624,-0.21656250,0.66120250,-0.11817750,-0.04209296,-1.57249342,-0.03127740
1605536954.80040026,-0.00573400,-0.00146400,1.02638600,-0.10996879,-0.02040922,-0.32156250,0.76620250,-0.04817750,-0.04209296,-1.57249342,-0.02660041
1605536954.86311603,-0.00524600,-0.00268400,1.02589800,0.22510296,0.02002008,0.02843750,0.31120250,-0.11817750,-0.03478515,-1.56869336,-0.02660041
1605536954.92579222,-0.00317200,-0.00073200,1.02602000,0.23935098,-0.03410855,0.09843750,0.10120250,-0.11817750,-0.04092371,-1.56942414,-0.03317743
1605536954.98846865,-0.00671000,-0.00256200,1.02589800,0.01327169,0.16542505,-0.00656250,0.38120250,-0.01317750,-0.04092371,-1.56942414,-0.03317743
1605536955.05106592,-0.00463600,-0.00024400,1.02797200,1.75275063,0.04492490,0.09843750,0.10120250,-0.04817750,-0.04106986,-1.57030108,-0.03025431
1605536955.11376309,-0.00451400,0.00048800,1.02614200,-1.67856414,0.03919910,-0.32156250,0.73120250,0.12682250,-0.03931599,-1.56547793,-0.02864659
1605536955.17654300,-0.00463600,0.00073200,1.02724000,0.07502921,0.04849002,-0.25156250,0.80120250,0.05682250,-0.03931599,-1.56547793,-0.02864659
1605536955.23918080,-0.00561200,-0.00085400,1.02565400,-0.01383712,0.10130518,0.13343750,0.06620250,-0.01317750,-0.03916983,-1.57161649,-0.03215434
1605536955.30192876,-0.00329400,-0.00109800,1.02772800,-0.02734432,-0.06256051,-0.14656250,0.59120250,-0.08317750,-0.04910845,-1.57278574,-0.03142356
1605536955.36476398,-0.00439200,0.00085400,1.02565400,0.08157514,0.03996948,-0.14656250,0.62620250,0.05682250,-0.04910845,-1.57278574,-0.03142356
1605536955.42737961,-0.00414800,0.00048800,1.02541000,0.06113625,-0.05540537,0.06343750,-0.14379750,0.12682250,-0.03346975,-1.56796258,-0.03522362
1605536955.49005294,-0.00451400,-0.00048800,1.02053000,0.00647117,-0.02725803,0.02843750,0.31120250,0.02182250,-0.03346975,-1.56796258,-0.03171587
1605536955.55280304,-0.00427000,-0.00024400,1.02699600,-0.08864308,0.11450715,-0.07656250,1.08120250,0.40682250,-0.04370067,-1.56840105,-0.03171587
1605536955.61546206,-0.00500200,-0.00244000,1.02638600,0.02705857,0.05341023,-0.14656250,0.76620250,0.02182250,-0.03273897,-1.57015493,-0.03098509
1605536955.67815113,-0.00439200,0.00000000,1.02345800,-0.02076993,-0.08925552,-0.07656250,0.94120250,0.12682250,-0.03273897,-1.57015493,-0.03098509
1605536955.74089599,-0.00390400,-0.00012200,1.02736200,0.06785610,-0.08983888,-0.18156250,0.69620250,0.19682250,-0.03683134,-1.56679334,-0.02923122
1605536955.80362344,-0.00317200,-0.00183000,1.05725200,-0.13562085,0.17424602,-0.04156250,0.34620250,-0.32817750,-0.04223911,-1.57088571,-0.03186203
1605536955.86638522,-0.00488000,0.00012200,1.02492200,0.16329654,-0.10320125,-0.25156250,0.41620250,0.44182250,-0.04223911,-1.57088571,-0.03186203
1605536955.92914057,-0.00512400,0.00000000,1.02699600,-0.04127742,-0.10288918,0.16843750,0.06620250,-0.11817750,-0.03551593,-1.56752412,-0.02747735
1605536955.99182510,-0.00451400,0.00036600,1.02589800,-0.01391395,0.47726166,0.06343750,0.10120250,-0.01317750,-0.04399298,-1.56562409,-0.03156972
1605536956.05457234,-0.00573400,-0.00219600,1.02553200,-0.02059392,0.10777765,-0.21656250,0.20620250,0.09182250,-0.04399298,-1.56562409,-0.03156972
1605536956.11727023,-0.00378200,-0.00036600,1.02455600,-0.06914320,0.00069909,-0.11156250,0.52120250,0.05682250,-0.04413914,-1.56620871,-0.03113125
1605536956.17993474,-0.00317200,-0.00024400,1.02724000,-0.01372438,-0.03541768,-0.00656250,0.24120250,-0.15317750,-0.03346975,-1.56825490,-0.03083894
1605536956.24292374,-0.00414800,-0.00048800,1.02565400,0.12259294,0.01985513,-0.21656250,0.52120250,0.26682250,-0.03346975,-1.56825490,-0.03083894
1605536956.30562615,-0.00427000,-0.00134200,1.02614200,1.69896059,0.02564451,0.06343750,0.10120250,-0.15317750,-0.04033908,-1.57132417,-0.03449284
1605536956.36824369,-0.00390400,-0.00195200,1.02614200,-0.07467064,0.00488650,-0.18156250,0.76620250,0.09182250,-0.04033908,-1.57132417,-0.03449284
1605536956.43105984,-0.00488000,-0.00170800,1.02504400,-0.06085611,0.05845078,-0.07656250,0.20620250,0.05682250,-0.03244665,-1.56737796,-0.03054662
1605536956.49390745,-0.00353800,-0.00134200,1.02602000,-0.04111618,-0.01450470,-0.18156250,0.52120250,0.09182250,-0.02835428,-1.56854721,-0.03493131
1605536956.55664372,-0.00378200,-0.00256200,1.02809400,-0.10891037,-0.00142331,-0.77656250,1.57120250,0.40682250,-0.02835428,-1.56854721,-0.03493131
1605536956.61933851,-0.00500200,-0.00207400,1.02846000,-0.08167311,0.01889152,0.09843750,0.20620250,-0.15317750,-0.03990061,-1.57220111,-0.03098509
1605536956.68199110,-0.00451400,0.00024400,1.03321800,0.04739949,0.01106260,-0.74156250,1.46620250,0.51182250,-0.03420053,-1.56898568,-0.02908506
1605536956.74491596,-0.00439200,-0.00048800,1.02907000,0.00669876,0.08667976,-0.77656250,1.50120250,0.54682250,-0.03420053,-1.56898568,-0.02908506
1605536956.80762649,-0.00463600,0.03074400,1.02260400,0.04070443,-0.05497513,-0.07656250,0.69620250,0.23182250,-0.03317743,-1.57030108,-0.02660041
1605536956.87037563,-0.00475800,-0.00061000,1.02833800,-0.22443057,0.02571434,-0.11156250,1.32620250,0.58182250,-0.03902368,-1.56620871,-0.02893891
1605536956.93313646,-0.00378200,-0.00048800,1.02772800,-0.02734341,0.13467879,-0.14656250,1.22120250,0.72182250,-0.03902368,-1.56620871,-0.02893891
1605536956.99589825,-0.00414800,-0.00012200,1.01992000,0.13667097,0.06880041,-0.14656250,1.08120250,0.26682250,-0.03390821,-1.57249342,-0.02689272
1605536957.05861688,-0.00463600,-0.00158600,1.02553200,-0.15018405,0.04684497,-0.11156250,0.38120250,0.05682250,-0.03390821,-1.57249342,-0.02689272
1605536957.12116981,-0.00500200,0.00012200,1.02650800,-0.15624706,0.35137310,-0.11156250,0.31120250,0.26682250,-0.04136217,-1.57220111,-0.02660041
1605536957.18388271,-0.00488000,0.00061000,1.02650800,-0.08163884,0.45368968,-0.07656250,0.13620250,0.12682250,-0.03683134,-1.56767027,-0.02996200
1605536957.24664259,-0.00341600,-0.00061000,1.02553200,-0.02092632,0.03438619,-0.18156250,0.41620250,0.05682250,-0.03683134,-1.56767027,-0.02996200
1605536957.30929637,-0.00451400,-0.00158600,1.02589800,0.08179175,0.04111443,0.16843750,-0.17879750,0.02182250,-0.03405437,-1.56825490,-0.02747735
1605536957.37186503,-0.00488000,0.00134200,1.02589800,-0.06178233,0.06109715,-0.18156250,0.38120250,0.23182250,-0.03960830,-1.56869336,-0.02966969
1605536957.43459702,-0.00427000,0.00073200,1.02833800,0.01335745,0.02710784,-0.28656250,0.76620250,0.09182250,-0.03960830,-1.56869336,-0.02966969
1605536957.49731088,-0.00292800,-0.00134200,1.02577600,-0.04113417,-0.04854974,0.20343750,-0.07379750,-0.22317750,-0.03405437,-1.57000877,-0.02937738
1605536957.56002831,-0.00390400,-0.00109800,1.02638600,-0.02673974,0.00330487,0.41343750,-0.66879750,-0.22317750,-0.03785443,-1.57176264,-0.03156972
1605536957.62275743,-0.00414800,0.00073200,1.02614200,0.07458085,0.01850881,0.41343750,-0.52879750,-0.36317750,-0.03785443,-1.57176264,-0.03156972
1605536957.68547010,-0.00488000,0.00061000,1.02650800,0.06791638,0.06018804,0.34343750,-0.28379750,-0.29317750,-0.03931599,-1.57220111,-0.02440807
1605536957.74868965,-0.00378200,-0.00134200,1.02638600,-0.04026934,-0.00325754,-0.18156250,0.38120250,0.09182250,-0.03931599,-1.57220111,-0.02440807
1605536957.81156969,-0.00475800,0.00085400,1.02785000,0.08141673,0.05271741,0.02843750,-0.10879750,0.09182250,-0.03566209,-1.57117802,-0.03361590
1605536957.87434101,-0.00549000,0.00061000,1.02638600,0.06792032,0.09427147,-0.04156250,0.27620250,0.16182250,-0.03551593,-1.56869336,-0.02747735
1605536957.93688560,-0.00280600,0.00036600,1.02358000,0.05435584,0.04730940,-0.00656250,0.17120250,-0.11817750,-0.03551593,-1.56869336,-0.02747735
1605536957.99946904,-0.00439200,0.00036600,1.02297000,0.05436827,-0.21219293,-0.11156250,0.55620250,0.23182250,-0.03566209,-1.57205495,-0.02396960
1605536958.06201839,-0.00451400,-0.00012200,1.02492200,-0.06161258,-0.15763211,-0.11156250,0.62620250,-0.04817750,-0.03113125,-1.56664718,-0.02776966
1605536958.12496662,-0.00463600,-0.03111000,1.01772400,-0.05541960,-0.22592962,-0.25156250,0.48620250,0.33682250,-0.03113125,-1.56664718,-0.02776966
1605536958.18754840,-0.00500200,0.00000000,1.03016800,-0.02041314,0.14064240,-0.11156250,0.41620250,0.19682250,-0.03887752,-1.57322420,-0.02411576
1605536958.25009012,-0.00475800,0.00158600,1.02748400,0.02022059,-0.04158905,-0.11156250,0.38120250,0.33682250,-0.03493131,-1.56577024,-0.02601578
1605536958.31274319,-0.00366000,-0.00024400,1.02614200,0.06803043,-0.16436676,-0.07656250,0.55620250,-0.11817750,-0.03493131,-1.56577024,-0.02601578
1605536958.37530112,-0.00414800,-0.00048800,1.02553200,-0.02782051,-0.16421230,-0.07656250,0.41620250,0.16182250,-0.03376206,-1.56942414,-0.03346975
1605536958.43792319,-0.00402600,-0.00109800,1.02589800,0.14964440,0.01254820,-0.11156250,0.55620250,0.16182250,-0.03376206,-1.56942414,-0.03346975
1605536958.50047040,-0.00463600,0.00012200,1.02626400,0.05437050,0.04749511,0.06343750,-0.07379750,-0.01317750,-0.03946215,-1.57307805,-0.02499269
1605536958.56316519,-0.00402600,-0.00146400,1.02638600,1.69000938,0.01176266,-0.32156250,0.94120250,0.23182250,-0.03522362,-1.57366267,-0.02689272
1605536958.62577176,-0.00353800,-0.00183000,1.02419000,-0.06848084,-0.01431651,0.13343750,0.03120250,-0.18817750,-0.03522362,-1.57366267,-0.02689272
1605536958.68831062,-0.00500200,-0.00085400,1.02748400,-0.01375230,0.06673221,-0.11156250,0.45120250,-0.04817750,-0.04223911,-1.56503946,-0.02923122
1605536958.75101924,-0.00305000,-0.00061000,1.02528800,-0.00021912,0.06051214,0.02843750,0.20620250,-0.15317750,-0.03712365,-1.57161649,-0.02440807
1605536958.81381059,-0.00341600,-0.00109800,1.02736200,-0.02736539,0.10758763,-0.14656250,0.45120250,-0.11817750,-0.03712365,-1.57161649,-0.02440807
1605536958.87648892,-0.00427000,-0.00061000,1.02870400,-0.00010621,-0.06949741,-0.07656250,0.03120250,0.05682250,-0.04077755,-1.56971646,-0.02250804
1605536958.93907595,-0.00341600,-0.00036600,1.02187200,0.01334760,-0.01382010,-0.14656250,0.27620250,0.09182250,-0.04033908,-1.57278574,-0.02850044
1605536959.00161958,-0.00451400,-0.00073200,1.01833400,0.15056072,-0.18473605,-0.07656250,0.45120250,0.02182250,-0.04033908,-1.57278574,-0.02850044
1605536959.06441402,-0.00292800,-0.00134200,1.02711800,-0.22473522,0.12127101,-0.04156250,0.38120250,-0.22317750,-0.03317743,-1.56430868,-0.02923122
1605536959.12709856,-0.00402600,-0.00036600,1.02711800,0.20402544,0.02602658,-0.07656250,0.38120250,0.19682250,-0.03317743,-1.56430868,-0.02923122
1605536959.18962121,-0.00366000,-0.00207400,1.02455600,0.12972693,-0.20534593,-0.53156250,1.29120250,0.12682250,-0.03142356,-1.56679334,-0.03054662
1605536959.25455427,-0.00378200,0.00061000,1.02602000,0.06793265,0.03306689,0.27343750,-0.31879750,-0.29317750,-0.03873137,-1.56883952,-0.02572347
1605536959.31716776,-0.00512400,-0.00109800,1.02724000,-0.02737240,0.14845249,0.06343750,-0.17879750,-0.11817750,-0.03873137,-1.56883952,-0.02572347
1605536959.37983155,-0.00451400,-0.00012200,1.03004600,-0.04077803,0.09996833,-0.07656250,0.73120250,0.44182250,-0.03434668,-1.57030108,-0.02630810
1605536959.44261765,-0.00475800,-0.03001200,1.02431200,-0.19132749,-0.12347940,-0.04156250,-0.21379750,-0.53817750,-0.03697749,-1.57117802,-0.03040047
1605536959.50534892,-0.00427000,-0.00048800,1.02626400,-0.00699799,0.00576423,-0.11156250,0.45120250,0.12682250,-0.03697749,-1.57117802,-0.03040047
1605536959.56805301,-0.00549000,-0.00012200,1.02870400,-0.20395231,0.11396267,-0.04156250,0.66120250,-0.11817750,-0.04077755,-1.56810874,-0.03390821
1605536959.63082051,-0.00512400,0.00024400,1.02711800,0.08828064,-0.06936193,-0.04156250,0.34620250,-0.29317750,-0.04004677,-1.56708565,-0.02923122
1605536959.69352150,-0.00366000,-0.00134200,1.02602000,0.17025466,-0.18491580,-0.18156250,0.69620250,0.54682250,-0.04004677,-1.56708565,-0.02923122
1605536959.75628233,-0.00305000,-0.00244000,1.02663000,-0.06802028,-0.13747423,-0.28656250,0.62620250,-0.29317750,-0.03741596,-1.57380883,-0.03741596
1605536959.81889224,-0.00439200,-0.00085400,1.02406800,-0.14979010,0.08710404,-0.04156250,0.06620250,0.02182250,-0.03741596,-1.57380883,-0.03741596
1605536959.88155723,-0.00329400,-0.00122000,1.02675200,-0.07553875,-0.02756734,-0.14656250,0.55620250,0.16182250,-0.04004677,-1.56796258,-0.02966969
1605536959.94439483,-0.00366000,-0.00097600,1.02577600,-0.25876462,-0.00803048,0.16843750,-0.14379750,-0.11817750,-0.03376206,-1.57497808,-0.03493131
1605536960.00704575,-0.00353800,0.00024400,1.02846000,-0.09543525,-0.01483377,-0.28656250,0.76620250,0.30182250,-0.03376206,-1.57497808,-0.03493131
1605536960.06964231,-0.00402600,-0.00024400,1.02772800,1.76337384,0.01247298,0.06343750,0.06620250,0.09182250,-0.03843905,-1.57307805,-0.03507746
1605536960.13230133,-0.00402600,-0.00097600,1.02602000,-0.02094606,0.01391925,-0.07656250,0.38120250,-0.04817750,-0.03785443,-1.57147033,-0.03478515
1605536960.19505787,-0.00512400,-0.00073200,1.02638600,-0.00727165,0.07579197,-0.60156250,1.08120250,0.37182250,-0.03785443,-1.57147033,-0.03478515
1605536960.25780964,-0.00390400,-0.00024400,1.02785000,0.02066870,-0.00098955,0.37843750,-0.45879750,-0.46817750,-0.03288512,-1.57322420,-0.03040047
1605536960.32046700,-0.00512400,-0.00231800,1.02455600,-0.09575773,0.07435107,-0.42656250,0.90620250,0.19682250,-0.03595440,-1.57395498,-0.02660041
1605536960.38317704,-0.00305000,0.00109800,1.02724000,0.09511107,-0.02846611,-0.46156250,1.18620250,0.40682250,-0.03595440,-1.57395498,-0.02660041
1605536960.44589162,-0.00427000,0.00219600,1.02650800,0.15644105,-0.17133557,-0.14656250,0.38120250,0.12682250,-0.03025431,-1.56679334,-0.03025431
1605536960.50858045,-0.00427000,-0.03123200,1.02614200,-0.00019030,0.18970874,-0.07656250,0.06620250,0.02182250,-0.03025431,-1.60420930,-0.02426191
1605536960.57129860,-0.00451400,-0.00109800,1.02882600,-0.20391672,0.34491194,-0.04156250,0.45120250,0.09182250,-0.03726980,-1.57307805,-0.02426191
1605536960.63412356,-0.00268400,-0.00012200,1.02919200,-0.00688165,0.03231098,-0.14656250,0.17120250,0.12682250,-0.03405437,-1.57234727,-0.03113125
1605536960.69675970,-0.00488000,0.00158600,1.01516200,0.06829718,-0.06070826,-0.11156250,0.41620250,0.09182250,-0.03405437,-1.57234727,-0.03113125
1605536960.75948739,-0.00329400,-0.00109800,1.02650800,-0.21089560,-0.08301196,0.06343750,0.13620250,-0.08317750,-0.03376206,-1.57424730,-0.02645425
1605536960.82214737,-0.00549000,-0.00146400,1.02541000,0.08145582,0.14131225,-0.18156250,0.17120250,0.16182250,-0.03493131,-1.57263958,-0.02879275
1605536960.88484836,-0.00305000,-0.00036600,1.02492200,0.14327708,-0.23270696,-0.18156250,0.76620250,-0.11817750,-0.03493131,-1.57263958,-0.02879275
1605536960.94756603,-0.00512400,-0.00207400,1.02528800,0.15724740,-0.11623190,-0.25156250,0.52120250,0.05682250,-0.03288512,-1.57424730,-0.02762350
1605536961.01029253,-0.00475800,-0.00024400,1.02602000,0.10931135,0.05528579,-0.07656250,0.48620250,0.02182250,-0.03683134,-1.57132417,-0.02893891
1605536961.07296395,-0.00488000,0.00000000,1.02675200,0.09560929,0.06220988,-0.32156250,0.48620250,0.12682250,-0.03683134,-1.57132417,-0.02893891
1605536961.13583183,-0.00549000,-0.00012200,1.02748400,-0.01396231,0.09529477,0.09843750,0.17120250,-0.01317750,-0.03478515,-1.57541654,-0.02864659
1605536961.19845963,-0.00524600,-0.00097600,1.02553200,1.71893075,0.07993420,-0.07656250,0.27620250,0.09182250,-0.07220111,-1.56767027,-0.02850044
1605536961.26117802,-0.00512400,-0.00085400,1.02748400,1.73682631,0.07501181,0.02843750,0.38120250,-0.01317750,-0.03770827,-1.56767027,-0.02850044
1605536961.32392192,-0.00353800,-0.00146400,1.02504400,-0.04702827,-0.01669117,0.02843750,-0.03879750,-0.11817750,-0.04282374,-1.57337036,-0.02835428
1605536961.38668871,-0.00353800,-0.00122000,1.02565400,-0.03403277,-0.01527780,-0.35656250,1.01120250,0.12682250,-0.04282374,-1.57337036,-0.02835428
1605536961.44928813,-0.00500200,-0.00170800,1.02419000,-0.06167973,0.06762899,0.13343750,-0.00379750,-0.15317750,-0.03829290,-1.57950892,-0.03025431
1605536961.51192999,-0.00292800,0.00085400,1.02553200,0.08158125,-0.15084846,-0.42656250,0.87120250,0.23182250,-0.03200818,-1.57132417,-0.02426191
1605536961.57471609,-0.00524600,-0.00012200,1.02772800,0.02706742,-0.04215610,-0.11156250,0.31120250,-0.04817750,-0.03200818,-1.57132417,-0.02426191
1605536961.63730812,-0.00439200,0.03074400,1.02467800,0.06115573,-0.05529336,-0.14656250,0.17120250,-0.18817750,-0.03449284,-1.57249342,-0.03142356
1605536961.69989538,-0.00402600,0.00000000,1.02724000,0.24481267,0.01916487,-0.18156250,0.76620250,-0.01317750,-0.03215434,-1.57351652,-0.02309266
1605536961.76251197,-0.00341600,-0.00073200,1.01735800,0.15754262,-0.42518692,-0.07656250,0.73120250,0.26682250,-0.03215434,-1.57351652,-0.02309266
1605536961.82520390,-0.00341600,-0.00109800,1.02699600,-0.05510997,-0.06161323,-0.18156250,0.52120250,0.05682250,-0.03273897,-1.56825490,-0.03083894
1605536961.88790107,-0.00414800,-0.00134200,1.02553200,0.08172356,-0.14382910,-0.00656250,0.45120250,-0.36317750,-0.03946215,-1.57234727,-0.02586963
1605536961.95070171,-0.00475800,0.00085400,1.02638600,-0.25161273,0.25001849,-0.00656250,0.03120250,0.16182250,-0.03946215,-1.57234727,-0.02586963
1605536962.01341462,-0.00256200,-0.00097600,1.02419000,-0.17657012,0.24263061,-0.00656250,0.31120250,-0.43317750,-0.03785443,-1.56752412,-0.02674657
1605536962.07615352,-0.00463600,-0.00012200,1.02638600,-0.09648756,0.04852063,-0.14656250,0.24120250,0.02182250,-0.03785443,-1.56752412,-0.02674657
1605536962.13881731,-0.00463600,-0.00061000,1.02467800,0.08848773,0.04724746,0.02843750,0.17120250,-0.01317750,-0.04121602,-1.56737796,-0.02630810
1605536962.20150137,-0.00488000,0.00109800,1.02504400,-0.19732314,0.05979797,0.13343750,-0.17879750,-0.08317750,-0.03946215,-1.57629348,-0.02367729
1605536962.26414061,-0.00427000,-0.00085400,1.02602000,-0.01375811,0.02594269,-0.25156250,0.52120250,0.12682250,-0.03946215,-1.57629348,-0.02367729
1605536962.32676244,-0.00341600,-0.00012200,1.02797200,1.75403781,-0.02333967,-0.21656250,0.55620250,-0.01317750,-0.03858521,-1.57103186,-0.02163110
1605536962.38948846,-0.00317200,-0.00012200,1.02589800,0.02705934,-0.03514450,-0.21656250,0.69620250,0.02182250,-0.03931599,-1.57497808,-0.02893891
1605536962.45219517,-0.00317200,-0.00134200,1.02516600,-0.04113411,-0.03491289,0.16843750,-0.17879750,-0.25817750,-0.03931599,-1.57497808,-0.02893891
1605536962.51498818,-0.00463600,0.00207400,1.02528800,0.14976816,0.04005907,-0.39156250,0.90620250,0.23182250,-0.03800058,-1.57132417,-0.03010816
1605536962.57760835,-0.00439200,-0.00012200,1.02797200,0.02706905,-0.01499723,-0.28656250,0.80120250,0.12682250,-0.03303128,-1.56767027,-0.03010816
1605536962.64035821,-0.00353800,-0.00305000,1.02443400,-0.13671116,0.15626196,0.62343750,-1.01879750,-0.57317750,-0.03303128,-1.56767027,-0.03010816
1605536962.70310259,-0.00402600,0.00244000,1.02260400,0.17057959,-0.05497558,-0.77656250,1.57120250,0.58182250,-0.04296989,-1.57205495,-0.03303128
1605536962.76581430,-0.00488000,-0.00048800,1.02309200,-0.02078936,-0.04138568,-0.14656250,0.80120250,0.16182250,-0.04296989,-1.57205495,-0.03303128
1605536962.82849288,-0.00536800,0.00036600,1.02077400,0.06126018,-0.14371469,0.02843750,0.59120250,0.09182250,-0.03726980,-1.56518562,-0.02981584
1605536962.89116621,-0.00414800,-0.00024400,1.01992000,0.14352567,-0.14365747,-0.18156250,0.10120250,0.02182250,-0.03756212,-1.56971646,-0.03069278
1605536962.95387721,-0.00463600,-0.00231800,1.02431200,0.15032353,-0.17109132,-0.25156250,1.46620250,0.51182250,-0.03756212,-1.56971646,-0.03069278
1605536963.01680017,-0.00378200,-0.00244000,1.02394600,-0.19110765,0.19685774,-0.00656250,0.45120250,-0.46817750,-0.03814674,-1.57234727,-0.03127740
1605536963.07950115,-0.00488000,0.00097600,1.02736200,-0.04809770,0.14299773,-0.25156250,0.48620250,0.02182250,-0.03186203,-1.57220111,-0.02908506
1605536963.14215660,-0.00414800,-0.00048800,1.02504400,0.02707788,-0.10353685,-0.11156250,0.45120250,0.16182250,-0.03186203,-1.57220111,-0.02908506
1605536963.20498657,-0.00573400,0.00036600,1.02687400,0.09501618,0.07995645,-0.42656250,0.41620250,0.19682250,-0.03653902,-1.57176264,-0.02937738
1605536963.26762819,-0.00512400,-0.00109800,1.02467800,-0.04754502,0.07275680,0.02843750,0.34620250,-0.04817750,-0.03858521,-1.57337036,-0.02747735
1605536963.33037162,-0.00292800,-0.00122000,1.02614200,-0.06810457,-0.04903527,-0.11156250,0.69620250,0.09182250,-0.03858521,-1.57337036,-0.02747735
1605536963.39303732,-0.00549000,0.00061000,1.02602000,0.05438755,0.09558851,0.06343750,0.27620250,-0.04817750,-0.02747735,-1.57161649,-0.02572347
1605536963.45577526,-0.00463600,0.00024400,1.02736200,0.04756440,0.04802275,-0.35656250,0.94120250,0.19682250,-0.02747735,-1.57161649,-0.02572347
1605536963.51862288,-0.00439200,-0.00048800,1.02614200,0.00665993,0.03268838,0.09843750,0.10120250,0.02182250,-0.03288512,-1.56913183,-0.03054662
1605536963.58127785,-0.00414800,-0.00024400,1.02821600,0.02018969,0.02035401,-0.18156250,0.76620250,0.23182250,-0.03405437,-1.57468576,-0.03639287
1605536963.64415669,-0.00500200,0.00012200,1.02443400,0.04067514,0.06686484,0.13343750,0.10120250,-0.15317750,-0.03405437,-1.57468576,-0.03639287
1605536963.70686698,-0.00524600,0.00024400,1.02589800,0.04749596,0.08079042,-0.42656250,1.25620250,0.23182250,-0.03127740,-1.56986261,-0.03536977
1605536963.76945496,-0.00414800,-0.00207400,1.02528800,-0.08203091,-0.02811659,-0.21656250,0.76620250,0.02182250,-0.03931599,-1.57380883,-0.02864659
1605536963.83210516,-0.00561200,0.00000000,1.02541000,0.03386888,0.01957933,-0.14656250,0.24120250,-0.08317750,-0.03931599,-1.57380883,-0.02864659
1605536963.89489865,-0.00597800,-0.00122000,1.02528800,-0.03430758,-0.04175157,-0.14656250,0.55620250,0.09182250,-0.03770827,-1.56781643,-0.02747735
1605536963.95761561,-0.00488000,-0.00012200,1.02772800,-0.04094709,-0.02175198,-0.21656250,0.20620250,0.12682250,-0.03697749,-1.56810874,-0.02923122
1605536964.02027464,-0.00427000,0.03013400,1.02553200,0.36785177,-0.15766542,-0.11156250,0.48620250,-0.04817750,-0.03697749,-1.56810874,-0.02923122
1605536964.08290291,-0.00427000,-0.00024400,1.02577600,-0.02746014,0.09445359,-0.18156250,0.97620250,0.44182250,-0.03536977,-1.56898568,-0.02236188
1605536964.14563823,-0.00475800,0.00036600,1.05700800,-0.13554425,-0.11054515,-0.14656250,0.45120250,-0.04817750,-0.03536977,-1.56898568,-0.02236188
1605536964.20826411,-0.00463600,0.00073200,1.02675200,0.12929303,-0.01452832,-0.18156250,0.48620250,-0.22317750,-0.03259281,-1.57088571,-0.02820813
1605536964.27100515,-0.00463600,-0.00061000,1.02711800,0.23293082,-0.27397066,-0.18156250,0.66120250,0.05682250,-0.03683134,-1.57512423,-0.02426191
1605536964.33387256,-0.00561200,-0.00097600,1.02516600,0.02026310,0.24360571,-0.07656250,0.17120250,-0.36317750,-0.03683134,-1.57512423,-0.02426191
1605536964.39669371,-0.00573400,-0.00219600,1.02504400,-0.16924900,0.34977437,0.16843750,0.06620250,-0.15317750,-0.02660041,-1.57190880,-0.03098509
1605536964.45941091,-0.00414800,-0.00109800,1.02699600,-0.00694943,0.01911144,-0.21656250,0.66120250,0.09182250,-0.02718503,-1.56767027,-0.03025431
1605536964.52214170,-0.00488000,-0.00036600,1.02419000,-0.23954888,0.06122483,0.06343750,0.17120250,-0.01317750,-0.02718503,-1.56767027,-0.03025431
1605536964.58494329,-0.00268400,-0.00061000,1.02577600,0.10206164,-0.06216873,-0.35656250,0.83620250,0.37182250,-0.03463899,-1.57088571,-0.02630810
1605536964.64772010,-0.00439200,-0.00061000,1.02443400,0.02026602,0.03265933,-0.14656250,0.34620250,0.02182250,-0.03624671,-1.57410114,-0.02835428
1605536964.71027637,-0.00427000,-0.00024400,1.02516600,0.02035425,0.02431383,-0.00656250,0.48620250,0.05682250,-0.03624671,-1.57410114,-0.02835428
1605536964.77287793,-0.00378200,-0.00012200,1.02541000,0.02712190,-0.00303593,0.37843750,-0.35379750,-0.32817750,-0.03712365,-1.56737796,-0.02879275
1605536964.83557653,-0.00439200,0.00000000,1.02724000,0.03386888,0.03277565,-0.39156250,0.87120250,0.30182250,-0.03712365,-1.56737796,-0.02879275
1605536964.89821696,-0.00463600,0.00012200,1.02809400,0.04046744,0.03855286,0.41343750,-0.31879750,-0.39817750,-0.03990061,-1.57103186,-0.02864659
1605536964.96084237,-0.00451400,-0.00134200,1.03175400,-0.04065450,0.09267683,0.20343750,-0.14379750,-0.18817750,-0.03230050,-1.57147033,-0.02835428
1605536965.02362251,-0.00366000,-0.00292800,1.02760600,-0.12938241,0.16192677,0.69343750,-0.80879750,-0.43317750,-0.03230050,-1.57147033,-0.02835428
1605536965.08633208,-0.00439200,-0.00048800,1.02528800,-0.09566433,0.14232098,0.16843750,0.24120250,0.05682250,-0.03887752,-1.57337036,-0.02981584
1605536965.14910078,-0.00402600,-0.00073200,1.02480000,0.02022715,0.02653809,-0.07656250,0.27620250,0.05682250,-0.03990061,-1.57263958,-0.02703888
1605536965.21176457,-0.00488000,-0.00061000,1.03285200,-0.06764370,0.26830537,-0.14656250,0.97620250,0.37182250,-0.03990061,-1.57263958,-0.02703888
1605536965.27452469,-0.00427000,-0.00146400,1.02138400,0.17074339,-0.19166178,-0.07656250,0.31120250,-0.01317750,-0.03098509,-1.57161649,-0.03463899
1605536965.33723640,-0.00488000,0.00122000,1.02858200,0.30640685,0.13529379,-0.00656250,0.41620250,0.16182250,-0.04180064,-1.57395498,-0.03536977
1605536965.40001464,-0.00463600,0.00000000,1.02638600,-0.00031660,0.10915228,-0.04156250,0.45120250,-0.15317750,-0.04180064,-1.57395498,-0.03536977
1605536965.46276855,-0.00439200,0.00000000,1.02821600,-0.16355371,0.28477263,0.02843750,0.20620250,0.12682250,-0.03916983,-1.57103186,-0.02557732
1605536965.52551150,-0.00463600,-0.00219600,1.02553200,-0.15115388,-0.06143373,-0.04156250,0.62620250,0.05682250,-0.03916983,-1.57103186,-0.02557732
1605536965.58815837,-0.00524600,-0.00085400,1.02663000,-0.12226649,0.07971323,-0.00656250,0.31120250,0.05682250,-0.03361590,-1.57117802,-0.03054662
1605536965.65094376,-0.00439200,0.00024400,1.02589800,0.02018317,0.03415071,0.02843750,0.24120250,-0.08317750,-0.04019293,-1.57000877,-0.03142356
1605536965.71366739,-0.00439200,-0.00024400,1.02516600,0.08159787,0.03327115,0.02843750,0.24120250,-0.18817750,-0.04019293,-1.57000877,-0.03142356
1605536965.77635741,-0.00329400,0.00000000,1.02589800,-0.05452902,-0.02859705,-0.21656250,0.52120250,0.02182250,-0.03522362,-1.56591640,-0.03259281
1605536965.83910084,-0.00512400,0.00048800,1.02589800,-1.67067753,0.07185739,0.09843750,-0.00379750,-0.15317750,-0.03726980,-1.56781643,-0.02835428
1605536965.90184069,-0.00512400,-0.00085400,1.02711800,-0.01378056,0.07370489,0.27343750,-0.10879750,-0.29317750,-0.03726980,-1.56781643,-0.02835428
1605536965.96466637,-0.00366000,0.00000000,1.02687400,0.03386888,-0.00766341,0.09843750,0.34620250,-0.01317750,-0.03697749,-1.57117802,-0.03040047
1605536966.02729630,-0.00463600,0.00073200,1.02589800,0.07475021,0.04672302,0.13343750,0.03120250,-0.11817750,-0.03726980,-1.56927799,-0.02791581
1605536966.08987808,-0.00451400,0.00036600,1.02699600,0.05428780,-0.02842236,-0.35656250,0.97620250,0.44182250,-0.03726980,-1.56927799,-0.02791581
1605536966.15248966,-0.00402600,0.00183000,1.02638600,0.13602324,0.08065066,-0.67156250,1.18620250,0.40682250,-0.04223911,-1.56957030,-0.03244665
1605536966.21532702,-0.00366000,-0.00158600,1.02882600,-0.05445478,0.10033838,-0.21656250,0.62620250,0.09182250,-0.04223911,-1.56957030,-0.03244665
1605536966.27797461,-0.00390400,0.02928000,1.02919200,0.03386888,-0.05598150,-0.18156250,0.62620250,0.09182250,-0.03361590,-1.57161649,-0.03273897
1605536966.34053588,-0.00414800,-0.00073200,1.02565400,-0.25917744,0.17626510,-0.07656250,0.20620250,0.05682250,-0.03800058,-1.56957030,-0.03829290
1605536966.40315580,-0.00341600,-0.00085400,1.02589800,-0.23146472,0.44094774,-0.18156250,0.45120250,0.30182250,-0.03800058,-1.56957030,-0.03829290
1605536966.46576691,-0.00317200,-0.00048800,1.02687400,0.11574816,0.07438563,-0.21656250,0.62620250,-0.01317750,-0.03902368,-1.56840105,-0.02923122
1605536966.52835536,-0.00402600,-0.00036600,1.02663000,0.05429207,0.25754566,-0.14656250,0.34620250,-0.25817750,-0.03566209,-1.56825490,-0.02981584
1605536966.59102321,-0.00390400,-0.00036600,1.02455600,-0.10890972,0.05976706,-0.00656250,0.41620250,0.02182250,-0.03566209,-1.56825490,-0.02981584
1605536966.65373540,-0.00402600,-0.00231800,1.02785000,0.10164191,0.01145857,-0.28656250,0.55620250,0.12682250,-0.04063139,-1.57044724,-0.02864659
1605536966.71635675,-0.00475800,0.00048800,1.02614200,0.06798533,0.05391627,-0.18156250,0.45120250,0.09182250,-0.04384683,-1.57322420,-0.03244665
1605536966.77900505,-0.00536800,-0.00012200,1.02589800,1.78598809,0.09008780,-0.07656250,0.38120250,0.05682250,-0.04384683,-1.57322420,-0.03244665
1605536966.84171271,-0.00329400,-0.00146400,1.02516600,-0.04782614,-0.02837887,0.09843750,-0.03879750,-0.18817750,-0.03376206,-1.57015493,-0.03040047
1605536966.90455484,-0.00439200,0.00000000,1.02480000,0.03386888,0.03251409,-0.11156250,0.20620250,0.09182250,-0.03376206,-1.57015493,-0.03040047
1605536966.96715641,-0.00414800,-0.00036600,1.02699600,0.01360409,0.01747530,0.30843750,-0.14379750,-0.18817750,-0.04370067,-1.57234727,-0.02981584
1605536967.02989960,-0.00561200,0.00000000,1.02663000,0.03386888,0.10100726,-0.14656250,0.52120250,0.12682250,-0.03420053,-1.56942414,-0.03113125
1605536967.09259987,-0.00378200,-0.00085400,1.02663000,-0.01379213,0.00568651,0.51843750,-0.52879750,-0.39817750,-0.03420053,-1.56942414,-0.03113125
1605536967.15542436,-0.00439200,-0.00183000,1.02821600,-0.06810326,0.12091778,0.23843750,-0.24879750,-0.25817750,-0.03829290,-1.56854721,-0.03113125
1605536967.21814847,-0.00280600,-0.00231800,1.02858200,-0.09525141,-0.04229771,0.13343750,0.13620250,-0.22317750,-0.03946215,-1.56825490,-0.03069278
1605536967.28088808,-0.00378200,0.00134200,1.02431200,0.10893477,-0.22584127,0.20343750,-0.03879750,-0.04817750,-0.03946215,-1.56825490,-0.03069278
1605536967.34368873,-0.00341600,-0.00183000,1.02882600,-0.06124935,0.04598587,-0.07656250,0.38120250,0.12682250,-0.03142356,-1.57103186,-0.03025431
1605536967.40638590,-0.00427000,-0.00036600,1.02602000,-0.06150988,-0.01462234,-0.11156250,-0.03879750,0.19682250,-0.03916983,-1.57147033,-0.03098509
1605536967.46901226,-0.00500200,-0.00085400,1.02126200,0.11600342,-0.13005840,-0.18156250,0.27620250,0.02182250,-0.03916983,-1.57147033,-0.03098509
1605536967.53172398,-0.00463600,-0.00024400,1.02516600,0.19058175,-0.28714249,-0.00656250,0.27620250,-0.46817750,-0.03726980,-1.57059339,-0.02221573
1605536967.59456873,-0.00390400,-0.00158600,1.02443400,-0.06188600,-0.10275876,-0.21656250,0.76620250,0.26682250,-0.03726980,-1.56957030,-0.03230050
1605536967.65716672,-0.00414800,-0.00024400,1.02797200,-0.15000982,-0.01469353,0.06343750,0.45120250,0.19682250,-0.04048524,-1.56957030,-0.03230050
1605536967.71976352,-0.00500200,-0.00158600,1.02663000,-0.02759203,0.03365143,-0.39156250,0.73120250,0.12682250,-0.04077755,-1.57424730,-0.03346975
1605536967.78244758,-0.00439200,0.00122000,1.02589800,-0.18188068,0.03052548,0.06343750,0.03120250,-0.08317750,-0.04077755,-1.57424730,-0.03346975
1605536967.84528780,-0.00366000,-0.00085400,1.02248200,0.03386888,-0.00908928,-0.07656250,0.27620250,0.05682250,-0.03887752,-1.56854721,-0.03186203
1605536967.90793204,-0.00463600,-0.00134200,1.02760600,-0.14966001,0.04610742,-0.35656250,0.87120250,0.30182250,-0.04004677,-1.56986261,-0.03522362
1605536967.97054100,-0.00451400,-0.00036600,1.02467800,0.01330840,0.04138719,-0.21656250,0.52120250,-0.04817750,-0.04004677,-1.56986261,-0.03522362
1605536968.03318524,-0.00475800,-0.00048800,1.02675200,0.00675012,0.05221593,-0.07656250,0.38120250,-0.01317750,-0.03683134,-1.57424730,-0.03595440
1605536968.09589338,-0.00378200,0.00061000,1.02638600,0.06789631,-0.00122241,0.23843750,0.06620250,-0.29317750,-0.03551593,-1.57497808,-0.03493131
1605536968.15854216,-0.00463600,0.00073200,1.02589800,0.07475021,0.04672302,0.02843750,0.24120250,-0.18817750,-0.03551593,-1.57497808,-0.03493131
1605536968.22116494,-0.00402600,-0.00134200,1.02370200,-0.04124122,-0.00051857,0.13343750,0.24120250,-0.25817750,-0.03814674,-1.57103186,-0.03551593
1605536968.28385282,-0.00378200,0.00012200,1.02772800,0.04067031,0.03946070,0.55343750,-0.77379750,-0.36317750,-0.03814674,-1.57263958,-0.03741596
1605536968.34663773,-0.00536800,-0.00292800,1.02687400,-0.12950004,0.08731771,-0.07656250,0.62620250,-0.01317750,-0.03902368,-1.57263958,-0.03741596
1605536968.40925097,-0.00500200,-0.03098800,1.02650800,-0.04103641,-0.17814508,-0.21656250,1.46620250,0.51182250,-0.02557732,-1.57073955,-0.02966969
1605536968.47197556,-0.00439200,0.00061000,1.02846000,0.13581827,-0.07626036,-0.21656250,1.81620250,0.51182250,-0.02557732,-1.57073955,-0.02966969
1605536968.53482413,-0.00390400,0.00024400,1.03480400,-0.08096072,0.32143435,-0.18156250,0.48620250,0.02182250,-0.03887752,-1.56796258,-0.03653902
1605536968.59742284,-0.00378200,-0.00073200,1.02687400,0.20374409,-0.10347290,-0.28656250,0.76620250,0.65182250,-0.03054662,-1.56796258,-0.03303128
1605536968.66013646,-0.00329400,-0.00146400,1.02638600,0.01338426,-0.03465922,-0.14656250,0.41620250,0.26682250,-0.03054662,-1.56796258,-0.03303128
1605536968.72283602,-0.00366000,-0.00170800,1.02504400,-0.13445777,0.46112819,0.06343750,0.13620250,-0.22317750,-0.03273897,-1.56810874,-0.02762350
1605536968.78557801,-0.00390400,-0.00109800,1.02724000,0.02705860,0.10108171,-0.00656250,0.10120250,-0.01317750,-0.03551593,-1.57307805,-0.03478515
1605536968.84819937,-0.00463600,-0.00036600,1.02626400,-0.19718629,0.04604538,-0.04156250,0.52120250,0.09182250,-0.03551593,-1.57307805,-0.03478515
1605536968.91100883,-0.00353800,0.00000000,1.02565400,0.20316115,-0.01581380,0.06343750,0.17120250,-0.11817750,-0.03288512,-1.57059339,-0.03054662
1605536968.97377372,0.00000000,-0.00158600,1.02650800,0.03386888,1.52023255,-0.14656250,0.83620250,-0.01317750,-0.03624671,-1.57088571,-0.03434668
1605536969.03666925,-0.00292800,0.00134200,1.02370200,0.13596348,-0.04884145,-0.11156250,0.13620250,0.02182250,-0.03624671,-1.57088571,-0.03434668
1605536969.09928250,-0.00805200,-0.00890600,1.03224200,-0.46725195,0.24087416,0.27343750,0.31120250,-0.22317750,-0.03303128,-1.57351652,-0.02528500
1605536969.16191149,-0.00915000,0.00158600,1.02589800,0.12272771,0.30046080,0.34343750,-0.49379750,-0.11817750,-0.03303128,-1.57351652,-0.02528500
1605536969.22463751,0.00366000,-0.00292800,1.03553600,-0.13069383,-0.41789649,-0.70656250,0.62620250,-0.81817750,-0.02893891,-1.56752412,-0.03361590
1605536969.28724289,0.00292800,-0.01647000,1.03358400,-0.90748959,-0.37953826,1.74343750,-1.22879750,0.12682250,-0.03785443,-1.57380883,-0.03916983
1605536969.34998178,-0.00402600,-0.01537200,1.04859000,-0.80600362,-0.00556459,-1.23156250,0.20620250,0.23182250,-0.03785443,-1.57380883,-0.03916983
1605536969.41281700,-0.03159800,0.06246400,1.14606800,3.15091454,2.14944688,-0.70656250,-5.49879750,3.83682250,-0.03902368,-1.57731657,-0.03434668
1605536969.47554660,-0.01232200,0.01903200,1.16839400,0.96706395,0.11082356,-0.11156250,-36.36879750,13.98682250,-0.04267758,-1.56957030,-0.03244665
1605536969.53823137,0.09211000,0.00073200,1.12837800,1.30957695,-5.94037431,-5.32656250,-61.88379750,23.43682250,-0.04267758,-1.56957030,-0.03244665
1605536969.60097075,0.23655800,-0.08003200,1.08165200,-4.54859978,-13.06666824,-29.51156250,-81.30879750,18.32682250,-0.08228588,-1.55919322,-0.01388483
1605536969.66374469,0.35794800,-0.08552200,1.00052200,-4.81835290,-19.95342514,-50.96656250,-92.78879750,12.37682250,-0.13051739,-1.52411576,0.01300789
1605536969.72636604,0.48885400,-0.16091800,0.95184400,-7.94746815,-27.48944905,-46.06656250,-94.15379750,14.09182250,-0.13051739,-1.52411576,0.01300789
1605536969.78912663,0.47494600,-0.17568000,0.84228800,-10.85727734,-29.51115597,-5.25656250,-113.01879750,-3.51317750,-0.18357205,-1.46506869,0.05919322
1605536969.85181522,0.55656400,-0.10699400,0.86400400,-5.22468046,-34.49475210,8.39343750,-118.89879750,-17.23317750,-0.18357205,-1.46506869,0.05919322
1605536969.91447258,0.60646200,-0.08979200,0.84570400,-4.98148515,-36.36608853,5.62843750,-126.10879750,-7.18817750,-0.23998831,-1.47456884,0.12496346
1605536969.97710061,0.64428200,-0.13932400,0.67527000,-8.60987774,-43.99797377,2.19843750,-106.54379750,-8.13317750,-0.28938907,-1.48567670,0.17670272
1605536970.03971386,0.66648600,-0.13395600,0.52826000,-8.74004627,-49.95032515,-2.03656250,-70.00379750,-10.82817750,-0.28938907,-1.48567670,0.17670272
1605536970.10238481,0.72785200,-0.09723400,0.51081400,-6.49277885,-54.61232980,4.57843750,-54.32379750,-15.30817750,-0.31788951,-1.49137679,0.22771120
1605536970.16503954,0.79434200,-0.06295200,0.45542600,-3.88169892,-59.71479603,11.82343750,-44.13879750,-17.02317750,-0.34258989,-1.52206957,0.26235019
1605536970.22767520,0.84265400,-0.03196400,0.44688600,-1.88949982,-62.43946162,7.02843750,-36.89379750,-4.63317750,-0.34258989,-1.52206957,0.26235019
1605536970.29034400,0.90036000,-0.03123200,0.46116000,-1.74217192,-63.52402937,3.91343750,-30.27879750,8.94682250,-0.34010523,-1.52937738,0.27769658
1605536970.35295963,0.94903800,-0.07222400,0.43310000,-3.92283222,-65.40939550,6.60843750,-17.50379750,9.57682250,-0.35808243,-1.52148495,0.30429699
1605536970.41555572,0.82667200,0.00256200,0.35392200,0.19643744,-67.13504037,15.07843750,-19.98879750,-15.48317750,-0.35808243,-1.52148495,0.30429699
1605536970.47815442,1.06347400,-0.07051600,0.53728800,-3.35743878,-63.17369855,6.92343750,-25.69379750,-7.29317750,-0.35954399,-1.54779304,0.31788951
1605536970.54086280,0.98490600,-0.09015800,0.42102200,-4.18381754,-67.44399640,0.48343750,-34.33879750,-5.96317750,-0.35954399,-1.54779304,0.31788951
1605536970.60365438,0.96197000,-0.05441200,0.31207600,-3.03186270,-72.15186520,3.21343750,-48.51379750,-7.88817750,-0.37021339,-1.54150833,0.33820520
1605536970.66647625,0.98905400,-0.00549000,0.21655000,-0.16655583,-77.84745397,11.08843750,-51.48879750,-9.67317750,-0.38365975,-1.55802397,0.37021339
1605536970.72909451,1.00064400,0.01634800,0.18470800,0.86992091,-79.74554636,10.45843750,-52.85379750,-7.01317750,-0.38365975,-1.55802397,0.37021339
1605536970.79173470,1.02260400,0.02842600,0.11858400,1.33507498,-84.47193060,3.31843750,-49.98379750,-2.88317750,-0.37576732,-1.56240865,0.40222157
1605536970.85458207,1.02797200,0.03684400,0.08344800,2.44924515,-86.76637285,16.68843750,-52.57379750,6.32182250,-0.39096755,-1.56328559,0.43218357
1605536970.91721725,1.01613800,0.00561200,-0.06819800,-0.10386153,-86.88817264,4.40343750,-39.44879750,6.42682250,-0.39096755,-1.56328559,0.43218357
1605536970.97995734,0.99515400,-0.05185000,-0.24631800,-2.75184134,-75.78117969,-15.93156250,-1.01879750,-10.72317750,-0.39125987,-1.56007015,0.46097632
1605536971.04258680,0.98563800,-0.02269200,-0.02586400,-0.27783598,-87.52939015,-30.98156250,18.16120250,-30.00817750,-0.38161356,-1.58009354,0.45995323
1605536971.10533166,0.95757800,-0.00122000,-0.01939800,-0.19855069,-84.46728104,-18.55656250,10.91620250,2.40182250,-0.38161356,-1.58009354,0.45995323
1605536971.16808486,1.00345000,0.00671000,0.13017400,-0.23606292,-83.71431258,4.29843750,-10.18879750,0.19682250,-0.38672903,-1.58725519,0.45556855
1605536971.23080182,1.01870000,0.08808400,0.02940200,4.97455559,-85.10976974,-4.80156250,-20.47879750,3.69682250,-0.38672903,-1.58725519,0.45556855
1605536971.29343557,0.99271400,0.02745000,-0.01817800,1.61722540,-88.02192872,-0.07656250,-21.49379750,5.02682250,-0.38351359,-1.59587840,0.47383806
1605536971.35609221,1.03785400,0.00536800,-0.18287800,0.32817765,-83.48812635,-12.39656250,-13.58379750,1.00182250,-0.37664426,-1.58579363,0.48845367
1605536971.41872096,1.00101000,0.06368400,0.22679800,3.58435555,-76.96962699,-8.79156250,-35.56379750,4.22182250,-0.37664426,-1.58579363,0.48845367
1605536971.48141861,0.94635400,0.02000800,-0.08637600,1.22106609,-84.94422945,6.88843750,-80.64379750,4.78182250,-0.38380590,-1.59923999,0.50292312
1605536971.54413748,0.96282400,-0.01232200,-0.19873800,-0.69600547,-78.33305019,0.06343750,-80.88879750,3.13682250,-0.35895937,-1.58754750,0.55013154
1605536971.60675550,0.90938800,0.00524600,-0.30146200,0.34433292,-72.06693027,9.96843750,-88.76379750,-2.28817750,-0.35895937,-1.58754750,0.55013154
1605536971.66946244,0.89072200,0.04050400,-0.45750000,2.59625976,-62.80942726,13.50343750,-88.37879750,1.14182250,-0.34112833,-1.59748612,0.61707103
1605536971.73209238,0.86193000,0.06563600,-0.54277800,3.55496371,-57.85939069,8.28843750,-79.83879750,11.99182250,-0.31905875,-1.58959369,0.67100263
1605536971.79474783,0.79019400,0.02232600,-0.57620600,0.47458274,-54.27490816,15.28843750,-78.36879750,20.74182250,-0.31905875,-1.58959369,0.67100263
1605536971.85734487,0.75457000,-0.01085800,-0.60853600,-1.36092435,-52.21444512,21.51843750,-81.30879750,18.92182250,-0.28325051,-1.56810874,0.72201111
1605536971.91995764,0.73273200,-0.16750600,-0.68149200,-8.38009145,-45.65244821,8.04343750,-58.76879750,-0.81817750,-0.28325051,-1.56810874,0.72201111
1605536971.98258257,0.64952800,-0.06612400,-0.67429400,-3.89879399,-44.59946391,14.37843750,-67.06379750,-4.31817750,-0.24978077,-1.55817013,0.76351944
1605536972.04526448,0.59828800,-0.06636800,-0.78824200,-4.94442669,-36.79785443,11.08843750,-82.84879750,-1.48317750,-0.20988015,-1.55553932,0.79771996
1605536972.10786748,0.48739000,-0.12212200,-0.87852200,-6.56037214,-28.12567657,4.54343750,-79.73379750,-7.36317750,-0.20988015,-1.55553932,0.79771996
1605536972.17048001,0.38771600,-0.07478600,-0.99003000,-2.30311779,-21.49634450,-1.05656250,-53.20379750,-12.33317750,-0.15682549,-1.54793920,0.84405145
1605536972.23318624,0.30134000,-0.03879600,-0.89389400,-2.34507889,-19.02087389,-8.05656250,-72.13879750,6.74182250,-0.10040924,-1.57863198,0.88482900
1605536972.29597998,0.24997800,-0.01537200,-0.89169800,-0.89655214,-15.52353633,2.33843750,-99.43879750,25.64182250,-0.10040924,-1.57863198,0.88482900
1605536972.35860276,0.22594400,-0.10760400,-1.08848400,-5.49476304,-11.88361137,6.01343750,-73.32879750,22.14182250,-0.00833090,-1.56357790,0.91756796
1605536972.42128587,0.18568400,-0.10174800,-1.06554800,-5.34040784,-10.04081418,0.51843750,-31.18879750,12.13182250,0.08316282,-1.58170126,0.94621456
1605536972.48411489,0.13956800,-0.09577000,-0.95599200,-5.63811054,-7.68506819,-4.03156250,-20.33879750,-1.97317750,0.08316282,-1.58170126,0.94621456
1605536972.54673958,0.14310600,-0.06905200,-0.90877800,-4.27781808,-7.32354764,-14.35656250,-30.52379750,-3.44317750,0.12028647,-1.58783981,0.93203742
1605536972.60946608,0.07454200,-0.06551400,-1.02724000,-4.74260290,-3.85545088,-12.92156250,-33.11379750,3.87182250,0.12028647,-1.58783981,0.93203742
1605536972.67215157,0.09808800,-0.21167000,-1.36981600,-8.07342923,-4.93480595,-28.46156250,-4.93879750,6.98682250,0.18810289,-1.60786320,0.96506869
1605536972.73495936,-0.00976000,-0.02610800,-0.83277200,-3.20056173,-2.28124391,-12.99156250,1.32620250,0.96682250,0.22274189,-1.68211049,0.96784566
1605536972.79768634,0.01573800,-0.02879200,-0.95452800,-2.65146319,-1.02410770,-22.58156250,-0.28379750,-2.18317750,0.22274189,-1.68211049,0.96784566
1605536972.86053658,0.03403800,0.06014600,-0.92805400,2.00538751,-2.10843473,14.41343750,-0.91379750,-5.15817750,0.21894183,-1.69862613,0.96506869
1605536972.92325282,0.01329800,-0.00524600,-1.03053400,2.04394834,-1.68565863,1.49843750,-1.12379750,-5.47317750,0.22873429,-1.70242619,0.96258404
1605536972.98586655,0.02342400,0.00549000,-0.99125000,0.07553577,-1.63595796,-2.98156250,1.67620250,-4.87817750,0.22873429,-1.70242619,0.96258404
1605536973.04859591,0.04465200,0.03086600,-0.99625200,1.64657469,-2.25979362,-0.67156250,0.69620250,0.75682250,0.22434961,-1.70520316,0.96287635
1605536973.11133671,0.01207800,0.00512400,-0.98222200,0.23471457,-0.91516904,-2.56156250,0.73120250,-0.15317750,0.22844198,-1.70593394,0.96302251
1605536973.17416573,0.04611600,0.01671400,-0.99356800,3.83215140,-2.58427448,-10.71656250,4.58120250,-1.48317750,0.22844198,-1.70593394,0.96302251
1605536973.23688364,0.02903600,0.03159800,-0.97636600,1.20190535,-1.91780326,-0.07656250,-0.00379750,1.42182250,0.23297281,-1.71324174,0.96273020
1605536973.30122995,0.02147200,0.01659200,-0.98661400,1.13659028,-1.91977988,0.02843750,0.31120250,0.54682250,0.23297281,-1.71324174,0.96273020
1605536973.36407399,0.03220800,0.02915800,-0.98844400,1.68601253,-2.04166255,-0.07656250,0.52120250,-0.01317750,0.22858813,-1.71981877,0.95746858
1605536973.42669034,0.02586400,0.03208600,-0.99320200,2.04212443,-2.06591111,-0.25156250,0.66120250,-0.67817750,0.23092663,-1.71528793,0.95922245
1605536973.48929739,0.02891400,0.02830400,-0.98734600,1.70340772,-1.80422219,-0.25156250,0.52120250,-0.04817750,0.23092663,-1.71528793,0.95922245
1605536973.55191207,0.02854800,0.02696200,-0.99186000,1.67985100,-1.86524131,-0.21656250,0.20620250,-0.29317750,0.23092663,-1.71499562,0.95366852
1605536973.61461592,0.02952400,0.03330600,-0.99100600,2.12982495,-1.91414875,0.23843750,-0.00379750,-0.43317750,0.22376498,-1.71499562,0.95746858
1605536973.67719507,0.02952400,0.02196000,-0.99173800,1.28945563,-1.90036870,-0.07656250,0.97620250,0.33682250,0.22376498,-1.71499562,0.95746858
1605536973.73986626,0.01561600,0.03294000,-0.99344600,0.13258157,-1.11474583,-0.14656250,0.76620250,-0.18817750,0.22171880,-1.70695703,0.94577609
1605536973.80250192,0.03196400,0.02391200,-0.98942000,1.41571308,-2.05949298,-0.04156250,0.06620250,0.09182250,0.21777258,-1.70724934,0.94285297
1605536973.86527467,0.03013400,0.02720600,-0.99088400,1.60587699,-1.95343534,-0.18156250,0.62620250,0.16182250,0.21777258,-1.70724934,0.94285297
1605536973.92800331,0.00036600,0.03147600,-0.99173800,1.85093356,-1.90244748,-0.35656250,0.87120250,0.23182250,0.22113417,-1.71002631,0.95074540
1605536973.99059224,0.03062200,0.02684000,-0.98917600,1.58747607,-1.87882053,-0.00656250,0.48620250,-0.11817750,0.22113417,-1.71002631,0.95074540
1605536974.05338979,0.02903600,0.02854800,-0.99173800,1.68189708,-2.02225831,0.13343750,-0.31879750,0.02182250,0.22478807,-1.70944168,0.95030693
1605536974.11619902,0.03135400,0.03074400,-0.99588600,1.80110533,-2.11973617,0.27343750,-0.24879750,-0.04817750,0.22361882,-1.71938030,0.94095294
1605536974.17880464,0.02940200,0.02989000,-0.98466200,1.59457167,-1.90772148,-0.18156250,0.20620250,0.02182250,0.22361882,-1.71938030,0.94095294
1605536974.24140596,0.02598600,0.02732800,-1.00198600,1.67909267,-1.89925638,-0.07656250,0.24120250,0.02182250,0.22888044,-1.71148787,0.94855305
1605536974.30402136,0.02781600,0.02952400,-0.99259200,1.62084864,-1.55931428,0.06343750,0.27620250,-0.22317750,0.23019585,-1.70988015,0.94913768
1605536974.36544609,0.02854800,0.02781600,-0.98917600,1.64951245,-1.85594229,-0.04156250,0.38120250,0.02182250,0.23019585,-1.70988015,0.94913768
1605536974.42690063,0.02903600,0.02732800,-0.99100600,1.61278083,-1.88981426,0.20343750,0.03120250,-0.15317750,0.22244958,-1.71251096,0.94709149
1605536974.48836064,0.02769400,0.03025600,-0.99869200,1.92222119,-1.83470025,-0.00656250,0.38120250,-0.08317750,0.23151125,-1.71031862,0.95279158
1605536974.54982400,0.02879200,0.02952400,-0.99222600,1.65785756,-1.87855833,-0.11156250,0.45120250,-0.11817750,0.23151125,-1.71031862,0.95279158
1605536974.61127019,0.02989000,0.02952400,-0.98966400,1.74185133,-1.94135510,0.09843750,0.06620250,-0.18817750,0.22420345,-1.70871090,0.94855305
1605536974.67270589,0.02830400,0.02842600,-0.98978600,1.66398985,-2.01878955,-0.07656250,0.52120250,-0.01317750,0.22420345,-1.70871090,0.94855305
1605536974.73421645,0.02696200,0.02879200,-0.99112800,1.74251470,-1.77900546,-0.04156250,0.27620250,-0.08317750,0.22434961,-1.71207249,0.95016077
1605536974.79561615,0.02867000,0.02757200,-0.99088400,1.62708400,-1.86887202,0.06343750,-0.17879750,-0.25817750,0.22829582,-1.70608009,0.95366852
1605536974.85705018,0.03037800,0.03098800,-0.99076200,1.82433268,-2.11548212,-0.11156250,1.15120250,-0.08317750,0.22829582,-1.70608009,0.95366852
1605536974.91853952,0.02867000,0.02684000,-0.99015200,1.63025293,-1.60277742,-0.00656250,0.52120250,-0.04817750,0.22244958,-1.71090324,0.95001462
1605536974.98070240,0.02830400,0.02940200,-0.99320200,1.49864303,-1.84602293,-0.18156250,0.45120250,0.12682250,0.23019585,-1.71338790,0.94899152
1605536975.04410386,0.02806000,0.02806000,-0.98881000,1.63532277,-1.85598746,-0.04156250,0.45120250,0.05682250,0.23019585,-1.71338790,0.94899152
1605536975.10752630,0.02989000,0.02830400,-0.99088400,1.64170400,-1.58828297,0.02843750,0.41620250,-0.15317750,0.22712657,-1.70929553,0.94446068
1605536975.16922617,0.02806000,0.02745000,-0.99076200,1.61501101,-1.82848077,0.06343750,0.34620250,0.02182250,0.22712657,-1.70929553,0.94446068
1605536975.23085499,0.02976800,0.02806000,-0.99125000,1.65462285,-1.92458129,-0.00656250,0.45120250,0.12682250,0.22478807,-1.70988015,0.94460684
1605536975.29225564,0.02903600,0.03001200,-0.99088400,1.70217784,-1.80304944,-0.14656250,0.41620250,-0.15317750,0.22128033,-1.70608009,0.95176849
1605536975.35371542,0.02891400,0.03025600,-0.98966400,1.68084793,-1.88745429,-0.14656250,0.38120250,-0.15317750,0.22128033,-1.70608009,0.95176849
1605536975.41517282,0.02867000,0.02891400,-0.99149400,1.70357819,-1.84666664,0.44843750,-0.35379750,-0.22317750,0.22551885,-1.70929553,0.95249927
1605536975.47662759,0.02891400,0.02903600,-0.98344200,1.74579562,-1.64702236,-0.04156250,0.34620250,0.02182250,0.22361882,-1.71061093,0.95176849
1605536975.53827739,0.02879200,0.03001200,-0.99247000,1.55932351,-1.88668600,-0.14656250,0.45120250,0.02182250,0.22361882,-1.71061093,0.95176849
1605536975.59994268,0.03135400,0.02891400,-0.98917600,1.69627570,-2.01493175,-0.07656250,0.55620250,-0.01317750,0.23794212,-1.70388775,0.95439930
1605536975.66161823,0.02915800,0.02867000,-0.98698000,1.69692168,-2.00974780,-0.07656250,0.52120250,-0.11817750,0.23794212,-1.70388775,0.95439930
1605536975.72326541,0.02976800,0.02769400,-0.99149400,1.64506480,-1.73229924,-0.04156250,0.52120250,0.02182250,0.22171880,-1.70754165,0.95001462
1605536975.78499556,0.02940200,0.02867000,-0.99039600,1.52439011,-1.92280468,-0.04156250,0.45120250,-0.01317750,0.22756504,-1.70914937,0.94826074
1605536975.84847474,0.02915800,0.03172000,-0.99186000,1.59271620,-1.74281904,-0.14656250,0.52120250,-0.04817750,0.22756504,-1.70914937,0.94826074
1605536975.91110563,0.02940200,0.02757200,-0.99112800,1.60869796,-1.90657391,-0.04156250,0.34620250,-0.04817750,0.22698042,-1.70695703,0.94577609
1605536975.97380233,0.02879200,0.02915800,-0.99088400,1.80138232,-1.88069680,-0.07656250,0.45120250,-0.01317750,0.22069570,-1.71104940,0.94197603
1605536976.03663111,0.02891400,0.03037800,-0.99186000,1.87680044,-1.89204693,-0.14656250,0.52120250,-0.08317750,0.22069570,-1.71104940,0.94197603
1605536976.09935904,0.03135400,0.02879200,-0.99173800,1.68886032,-2.01449717,0.16843750,-0.00379750,-0.18817750,0.22391114,-1.70534931,0.94869921
1605536976.16204739,0.03037800,0.02903600,-0.99076200,1.72150494,-1.97785313,-0.07656250,0.41620250,-0.11817750,0.22244958,-1.70812628,0.94942999
1605536976.22491717,0.03123200,0.02891400,-0.99064000,1.71271178,-2.02566990,-0.28656250,0.83620250,0.02182250,0.22244958,-1.70812628,0.94942999
1605536976.28772640,0.02952400,0.03013400,-0.99161600,1.77907132,-1.92205678,0.30843750,-0.07379750,-0.25817750,0.22376498,-1.70958784,0.94942999
1605536976.35045433,0.02940200,0.02867000,-0.99112800,1.70401228,-1.92499083,0.23843750,0.20620250,-0.50317750,0.22376498,-1.70958784,0.94942999
1605536976.41321707,0.02793800,0.02952400,-0.99222600,1.73754532,-1.82432471,-0.00656250,0.24120250,0.05682250,0.22361882,-1.70695703,0.95235311
1605536976.47595286,0.02659600,0.02891400,-0.98954200,1.70686144,-1.85694150,-0.21656250,0.66120250,-0.01317750,0.22054955,-1.71441099,0.95133002
1605536976.53865337,0.02928000,0.02867000,-0.99027400,1.69154420,-1.83458903,0.06343750,0.06620250,-0.08317750,0.22054955,-1.71441099,0.95133002
1605536976.60131454,0.02903600,0.03086600,-0.98673600,1.82478703,-1.88273736,-0.35656250,0.87120250,0.19682250,0.22128033,-1.71397252,0.94942999
1605536976.66431808,0.03001200,0.02781600,-0.98905400,1.64412840,-1.89309771,0.27343750,-0.21379750,-0.25817750,0.22873429,-1.71017246,0.95191464
1605536976.72711754,0.03037800,0.03074400,-0.98698000,1.81727254,-1.88233144,-0.04156250,1.25620250,0.19682250,0.22873429,-1.71017246,0.95191464
1605536976.78986597,0.03025600,0.02842600,-0.99466600,1.60690379,-1.97489134,-0.00656250,-0.07379750,-0.25817750,0.22113417,-1.71353405,0.95732242
1605536976.85253978,0.03025600,0.02952400,-0.98661400,1.66922267,-2.02458923,-0.11156250,0.45120250,0.12682250,0.22566501,-1.70841859,0.95746858
1605536976.91530728,0.02793800,0.02842600,-0.98393000,1.65960970,-1.88764284,0.06343750,0.03120250,-0.29317750,0.22566501,-1.70841859,0.95746858
1605536976.97807145,0.02781600,0.02854800,-0.99125000,1.51474776,-1.81298251,0.06343750,0.59120250,0.23182250,0.22405729,-1.70739550,0.94650687
1605536977.04091001,0.02806000,0.02867000,-0.98893200,1.41289382,-1.71208676,0.06343750,0.27620250,0.16182250,0.22405729,-1.70739550,0.94650687
1605536977.10365105,0.02989000,0.02976800,-0.99039600,1.77059345,-2.06946578,-0.14656250,0.59120250,0.33682250,0.22215726,-1.71119556,0.95878398
1605536977.16637135,0.03050000,0.02769400,-0.99039600,1.76310641,-2.27329338,-0.11156250,0.69620250,0.09182250,0.22361882,-1.70929553,0.95016077
1605536977.22909164,0.02879200,0.03013400,-0.98856600,1.72221716,-1.81645153,-0.18156250,0.69620250,0.05682250,0.22361882,-1.70929553,0.95016077
1605536977.29185987,0.02879200,0.02818200,-0.99015200,1.81386626,-3.68900028,-0.14656250,0.38120250,-0.01317750,0.22054955,-1.70768781,0.94957615
1605536977.35464740,0.03025600,0.02989000,-0.99112800,2.05573785,-3.76433027,-0.11156250,0.80120250,0.02182250,0.22464192,-1.71280327,0.94913768
1605536977.41726184,0.02830400,0.02745000,-0.99320200,1.59884257,-1.84034367,-0.18156250,0.69620250,0.05682250,0.22464192,-1.71280327,0.94913768
1605536977.47999930,0.02842600,0.02940200,-0.98990800,1.79836622,-1.86993589,-0.18156250,0.41620250,0.12682250,0.22449576,-1.70988015,0.94826074
1605536977.54278374,0.02830400,0.03025600,-0.99027400,1.77589124,-1.84179539,0.02843750,0.31120250,-0.08317750,0.21718796,-1.71499562,0.95235311
1605536977.60548759,0.02952400,0.02842600,-0.98978600,3.47061354,-1.91222472,-0.42656250,1.08120250,0.30182250,0.21718796,-1.71499562,0.95235311
1605536977.66819930,0.02867000,0.02720600,-0.99088400,1.60285910,-1.86563596,-0.21656250,0.45120250,-0.18817750,0.22537270,-1.70739550,0.94928384
1605536977.73096991,0.02928000,0.02964600,-0.99015200,1.74493467,-1.90212828,0.23843750,-0.17879750,-0.15317750,0.22537270,-1.70710319,0.95732242
1605536977.79386568,0.02976800,0.02854800,-0.98942000,1.68563035,-1.93456333,0.13343750,0.13620250,-0.15317750,0.22303420,-1.70710319,0.95732242
1605536977.85676932,0.02952400,0.02757200,-0.99137200,1.62626060,-1.91735254,0.13343750,0.20620250,-0.11817750,0.21718796,-1.70885706,0.95498392
1605536977.91950250,0.02879200,0.02781600,-0.99076200,1.64139059,-1.84792437,0.06343750,0.27620250,-0.18817750,0.21718796,-1.70885706,0.95498392
1605536977.98221779,0.02903600,0.02940200,-0.99039600,1.73348461,-2.00351829,0.09843750,0.38120250,-0.18817750,0.22566501,-1.70578778,0.95629933
1605536978.04501486,0.02891400,0.02854800,-0.98978600,1.68531264,-1.82833996,-0.32156250,0.87120250,0.02182250,0.21748027,-1.70827243,0.95454545
1605536978.10775018,0.02879200,0.02623000,-0.98905400,1.55248481,-1.72374388,-0.00656250,0.27620250,-0.11817750,0.21748027,-1.70827243,0.95454545
1605536978.17044568,0.03001200,0.02757200,-0.99417800,1.63570231,-2.04594485,-0.14656250,1.32620250,0.26682250,0.22201111,-1.70841859,0.95176849
1605536978.23323178,0.02964600,0.02793800,-0.99308000,1.70096107,-1.78781752,-0.00656250,1.53620250,0.40682250,0.22288804,-1.70856475,0.95352236
1605536978.29597020,0.03037800,0.02976800,-0.99735000,1.87551435,-2.09586810,-0.07656250,0.76620250,0.05682250,0.22288804,-1.70856475,0.95352236
1605536978.35867095,0.02952400,0.02891400,-0.98954200,1.78689977,-1.86702597,-0.21656250,0.59120250,0.09182250,0.21821105,-1.70885706,0.95162233
1605536978.42140722,0.02928000,0.02891400,-0.98978600,1.76563294,-1.87325251,-0.07656250,0.38120250,0.09182250,0.22274189,-1.71134171,0.94855305
1605536978.48458791,0.02928000,0.02757200,-0.99149400,1.64237673,-1.64193826,0.06343750,0.38120250,0.12682250,0.22274189,-1.71134171,0.94855305
1605536978.54765797,0.02867000,0.03086600,-0.99161600,1.68484578,-1.72850797,-0.21656250,1.08120250,0.37182250,0.22522654,-1.70666472,0.94840690
1605536978.61074615,0.02891400,0.02842600,-0.98832200,1.62435237,-1.59056788,-0.07656250,0.13620250,-0.11817750,0.22522654,-1.70666472,0.94840690
1605536978.67381740,0.02976800,0.02976800,-0.98783400,1.63188341,-2.00825285,-0.14656250,1.08120250,0.40682250,0.21879567,-1.71382637,0.94504531
1605536978.73697472,0.02879200,0.02976800,-1.00003400,1.71711676,-2.00024030,-0.25156250,1.18620250,0.12682250,0.22434961,-1.70388775,0.95118386
1605536978.80003858,0.02684000,0.02928000,-0.98917600,1.82031058,-1.94919203,-0.07656250,0.17120250,-0.04817750,0.22434961,-1.70388775,0.95118386
1605536978.86171436,0.03013400,0.02964600,-0.99076200,1.74799882,-2.13889402,-0.11156250,0.55620250,0.05682250,0.22113417,-1.70608009,0.95834551
1605536978.92341185,0.02903600,0.03025600,-0.99161600,1.79592913,-1.90318129,0.09843750,0.06620250,-0.15317750,0.22361882,-1.70549547,0.94636071
1605536978.98506188,0.03062200,0.02769400,-0.98844400,1.63806913,-1.88001346,-0.11156250,0.41620250,-0.08317750,0.22361882,-1.70549547,0.94636071
1605536979.04674959,0.02940200,0.02842600,-0.99003000,1.72167813,-2.19547802,-0.00656250,0.38120250,0.02182250,0.22829582,-1.70330313,0.95103771
1605536979.10844612,0.02818200,0.02781600,-0.99137200,1.65416801,-1.83249206,-0.00656250,0.34620250,-0.04817750,0.22829582,-1.70330313,0.94826074
1605536979.17015195,0.02806000,0.02793800,-0.99247000,1.64765488,-1.83302791,-0.04156250,0.55620250,0.02182250,0.22113417,-1.70505700,0.94826074
1605536979.23181820,0.03050000,0.02525400,-0.98600400,1.50053514,-1.70720694,0.02843750,0.59120250,0.05682250,0.22668810,-1.70666472,0.95220696
1605536979.29350972,0.02793800,0.02623000,-0.99173800,1.77371366,-2.15721602,-0.14656250,0.59120250,0.02182250,0.22668810,-1.70666472,0.95220696
1605536979.35519719,0.02818200,0.03025600,-0.99100600,1.72408441,-1.83900801,-0.11156250,0.62620250,0.05682250,0.22478807,-1.70491084,0.94913768
1605536979.41688585,0.02976800,0.02659600,-0.99747200,1.56052821,-1.92098202,-0.28656250,0.97620250,0.02182250,0.22113417,-1.71031862,0.94592224
1605536979.47856641,0.03025600,0.02940200,-0.98905400,1.66543380,-1.73072157,-0.00656250,-0.63379750,-0.57317750,0.22113417,-1.71031862,0.94592224
1605536979.54162145,0.02769400,0.03098800,-0.99161600,1.82296079,-1.94491803,-0.63656250,1.53620250,0.47682250,0.22259573,-1.70505700,0.94650687
1605536979.60473537,0.03001200,0.02769400,-0.99442200,1.62844979,-1.85595923,-0.25156250,0.62620250,-0.04817750,0.21572640,-1.71470330,0.95133002
1605536979.66776824,0.02513200,0.02708400,-0.99283600,1.59587563,-1.80235111,0.20343750,-0.21379750,-0.15317750,0.21572640,-1.71470330,0.95133002
1605536979.73081708,0.02879200,0.02964600,-0.98942000,1.74939582,-1.86416388,0.48343750,-0.49379750,-0.25817750,0.21762643,-1.71221865,0.95352236
1605536979.79386377,0.03294000,0.02964600,-0.98868800,1.75046917,-2.07719173,-0.53156250,1.04620250,0.23182250,0.21762643,-1.71221865,0.95352236
1605536979.85704398,0.06234200,0.02940200,-0.98942000,1.73502926,-2.13931374,-0.11156250,0.34620250,-0.01317750,0.21952645,-1.70651856,0.95191464
1605536979.92007136,0.06173200,0.02952400,-0.99381200,1.73460941,-2.06759804,-0.18156250,0.66120250,0.09182250,0.21689564,-1.71280327,0.95191464
1605536979.98313594,0.03123200,0.02842600,-0.99051800,1.67685683,-2.04563167,0.34343750,-0.00379750,-0.25817750,0.21689564,-1.71280327,0.95191464
1605536980.04613709,0.02842600,0.02818200,-0.98966400,1.66435814,-1.82150139,-0.42656250,0.97620250,0.19682250,0.22551885,-1.70213388,0.95059924
1605536980.10908556,0.02854800,0.02989000,-0.99332400,1.75666297,-1.92091921,0.16843750,0.20620250,-0.25817750,0.22888044,-1.70754165,0.95059924
1605536980.17204642,0.02830400,0.02793800,-0.98917600,1.65102264,-1.85053785,-0.28656250,0.80120250,-0.04817750,0.22888044,-1.70754165,0.95059924
1605536980.23525453,0.02989000,0.02842600,-0.99027400,1.67735535,-1.94034753,-0.04156250,0.17120250,-0.18817750,0.22157264,-1.70841859,0.95089155
1605536980.29842210,0.02915800,0.02818200,-0.99003000,1.66369269,-1.89847688,-0.00656250,0.41620250,-0.15317750,0.22829582,-1.70505700,0.95498392
1605536980.36145782,0.02964600,0.02928000,-0.98954200,1.72152445,-1.92095041,-0.25156250,0.76620250,0.19682250,0.22829582,-1.70505700,0.95498392
1605536980.42466807,0.03001200,0.02720600,-0.99088400,1.60743058,-1.94809759,0.06343750,0.34620250,-0.36317750,0.22785735,-1.70505700,0.95454545
1605536980.48766327,0.03074400,0.02915800,-0.99137200,1.72355741,-1.99381807,-0.28656250,0.87120250,0.02182250,0.22069570,-1.71178018,0.95396083
1605536980.55077028,0.02915800,0.02928000,-0.99112800,1.74931991,-1.92049412,0.27343750,-0.07379750,-0.29317750,0.22069570,-1.71178018,0.95396083
1605536980.61382031,0.02806000,0.02635200,-0.99027400,1.55946245,-1.83669327,-0.14656250,0.59120250,0.16182250,0.22537270,-1.70315697,0.95673780
1605536980.67696619,0.02854800,0.02732800,-0.99149400,1.61825748,-1.86733242,-0.04156250,0.20620250,-0.01317750,0.22537270,-1.70315697,0.95673780
1605536980.73991323,0.02915800,0.02928000,-0.99015200,1.71249057,-1.88381837,-0.39156250,0.87120250,0.19682250,0.22128033,-1.70754165,0.94562993
1605536980.80301452,0.03013400,0.02732800,-0.99137200,1.61525590,-1.95600233,0.23843750,-0.31879750,-0.32817750,0.21879567,-1.71251096,0.95469161
1605536980.86611867,0.02989000,0.03111000,-0.99295800,1.88313400,-1.92832564,-0.49656250,1.11620250,0.09182250,0.21879567,-1.71251096,0.95469161
1605536980.92926216,0.03001200,0.02696200,-0.99088400,1.60657140,-1.95496724,-0.11156250,0.48620250,-0.11817750,0.22727273,-1.71221865,0.95425314
1605536980.99225879,0.03062200,0.02720600,-0.98942000,1.65390257,-1.98791070,0.13343750,0.10120250,-0.15317750,0.22054955,-1.71236481,0.95498392
1605536981.05540419,0.02867000,0.02964600,-0.99039600,1.48937644,-1.87265588,-0.00656250,0.17120250,0.09182250,0.22054955,-1.71236481,0.95498392
1605536981.11852002,0.03062200,0.02928000,-0.99039600,1.79651225,-3.78859182,-0.07656250,0.66120250,-0.01317750,0.22683426,-1.70827243,0.95337621
1605536981.18154955,0.02854800,0.02769400,-0.99247000,1.76565792,-3.62162406,-0.11156250,0.48620250,0.02182250,0.22113417,-1.70768781,0.95366852
1605536981.24469090,0.02867000,0.02915800,-0.98966400,1.63973148,-1.86014199,-0.07656250,0.45120250,-0.11817750,0.22113417,-1.70768781,0.95366852
1605536981.30769134,0.03074400,0.02830400,-0.99064000,1.47836452,-1.99666935,-0.11156250,0.62620250,0.12682250,0.21718796,-1.71163403,0.95366852
1605536981.37079382,0.03135400,0.02793800,-0.99076200,1.51195775,-1.77557675,0.16843750,-0.14379750,-0.04817750,0.21718796,-1.71163403,0.94796843
1605536981.43389988,0.02854800,0.02867000,-0.99271400,1.78206482,-2.11552551,-0.04156250,0.31120250,-0.46817750,0.22595732,-1.70432622,0.94796843
1605536981.49702430,0.03013400,0.02867000,-0.99100600,1.56658257,-1.91525580,-0.04156250,0.24120250,-0.18817750,0.22405729,-1.70841859,0.94855305
1605536981.56012058,0.02940200,0.02903600,-0.98905400,1.68764780,-1.95787615,-0.04156250,0.34620250,0.33682250,0.22405729,-1.70841859,0.94855305
1605536981.62317753,0.02928000,0.02793800,-0.98990800,1.67547008,-1.98712758,-0.14656250,0.69620250,0.26682250,0.21996492,-1.71046478,0.95147618
1605536981.68618655,0.02891400,0.02891400,-0.98990800,1.55527142,-1.85448644,0.06343750,0.34620250,-0.08317750,0.22288804,-1.70315697,0.94066063
1605536981.74923992,0.03147600,0.02867000,-0.99003000,2.00441994,-2.03542687,-0.18156250,0.76620250,-0.11817750,0.22288804,-1.70315697,0.94066063
1605536981.81228590,0.03001200,0.02915800,-0.99222600,1.63546454,-1.73581596,0.16843750,0.06620250,-0.08317750,0.21850336,-1.70666472,0.95732242
1605536981.87553811,0.02854800,0.02928000,-0.99015200,1.87028793,-2.00605538,-0.11156250,0.52120250,-0.01317750,0.22011108,-1.70403391,0.95001462
1605536981.93855119,0.02879200,0.02891400,-0.99027400,1.56221791,-1.79690074,-0.04156250,0.34620250,-0.08317750,0.22011108,-1.70403391,0.95001462
1605536982.00152373,0.02928000,0.02915800,-0.99137200,1.63751419,-1.99876633,-0.04156250,0.41620250,-0.15317750,0.22478807,-1.70622625,0.95118386
1605536982.06469369,0.02915800,0.02854800,-0.99112800,1.54932531,-1.69944843,-0.00656250,0.17120250,-0.15317750,0.21879567,-1.71134171,0.94592224
1605536982.12770486,0.02915800,0.02915800,-0.99234800,1.91990538,-2.14046990,-0.07656250,0.59120250,0.02182250,0.21879567,-1.71134171,0.94592224
1605536982.19067740,0.02915800,0.02818200,-0.99247000,1.39249219,-1.67643089,-0.04156250,0.41620250,0.30182250,0.22391114,-1.70534931,0.94884537
1605536982.25379157,0.02891400,0.02891400,-0.99808200,1.82529457,-2.01761875,-0.04156250,0.94120250,-0.04817750,0.22391114,-1.70534931,0.94884537
1605536982.31698680,0.03050000,0.02842600,-0.98551600,1.72782325,-1.89905757,-0.00656250,-0.07379750,0.05682250,0.21689564,-1.70827243,0.95118386
1605536982.37998176,0.02891400,0.02842600,-0.99137200,1.73182695,-1.98767543,-0.14656250,0.87120250,-0.04817750,0.22069570,-1.70681087,0.95381467
1605536982.44308662,0.02915800,0.02830400,-0.97807400,1.74084288,-1.73342470,-0.04156250,0.13620250,-0.25817750,0.22069570,-1.70681087,0.95381467
1605536982.50620031,0.02952400,0.06234200,-0.99698400,2.03009805,-2.16637974,-0.07656250,0.45120250,0.16182250,0.22054955,-1.71221865,0.94855305
1605536982.56914663,0.03050000,0.02891400,-0.98759000,1.67502648,-1.58448378,-0.00656250,0.17120250,-0.15317750,0.21733411,-1.70900322,0.94942999
1605536982.63224030,0.02928000,0.02867000,-0.99198200,1.72379802,-1.93029593,-0.11156250,-0.00379750,-0.25817750,0.21733411,-1.70900322,0.94942999
1605536982.69532108,0.03001200,0.03062200,-0.99381200,1.79771278,-2.17287327,0.20343750,-0.31879750,-0.04817750,0.22098802,-1.71002631,0.94752996
1605536982.75843477,0.02940200,0.02940200,-0.99369000,1.72787219,-1.98354000,0.23843750,-0.07379750,-0.08317750,0.22230342,-1.70724934,0.95016077
1605536982.82143617,0.02989000,0.03062200,-0.99027400,1.80421556,-1.96842883,-0.35656250,0.55620250,0.26682250,0.22230342,-1.70724934,0.95016077
1605536982.88465118,0.02842600,0.02830400,-0.99369000,1.66472382,-1.89226860,-0.21656250,0.52120250,0.16182250,0.21894183,-1.71236481,0.95030693
1605536982.94758487,0.02891400,0.02903600,-0.98868800,1.71524780,-1.99250745,-0.39156250,1.08120250,-0.01317750,0.22303420,-1.70812628,0.95074540
1605536983.01070833,0.02940200,0.02879200,-0.99137200,1.69662591,-1.98066624,-0.46156250,1.29120250,0.05682250,0.22303420,-1.70812628,0.95074540
1605536983.07371783,0.02854800,0.02818200,-0.98966400,1.66428866,-1.90615372,-0.07656250,0.52120250,0.16182250,0.22040339,-1.70651856,0.94489915
1605536983.13662481,0.03013400,0.02769400,-0.98771200,1.63926215,-1.87417954,-0.18156250,0.41620250,0.02182250,0.22040339,-1.70651856,0.94489915
1605536983.19956970,0.02879200,0.02891400,-0.99076200,1.70473785,-1.93242708,-0.04156250,0.52120250,-0.04817750,0.22142648,-1.70754165,0.94752996
1605536983.26298809,0.02989000,0.02818200,-0.98990800,1.66385737,-1.94099774,0.30843750,-0.28379750,-0.36317750,0.22332651,-1.70798012,0.95118386
1605536983.32610345,0.02879200,0.02781600,-0.99003000,1.64255472,-1.87733951,0.09843750,0.10120250,0.02182250,0.22332651,-1.70798012,0.95118386
1605536983.38910341,0.02915800,0.02696200,-0.99125000,1.60360447,-1.90981630,0.27343750,-0.24879750,-0.22317750,0.21791874,-1.71046478,0.94621456
1605536983.45487452,0.02952400,0.02757200,-0.99039600,1.54594460,-1.74537239,-0.00656250,0.17120250,0.02182250,0.22361882,-1.70973400,0.95293774
1605536983.51779413,0.03074400,0.02793800,-0.98966400,1.88950143,-1.91314192,-0.18156250,0.55620250,-0.08317750,0.22361882,-1.70973400,0.95293774
1605536983.58083797,0.02964600,0.02879200,-0.99088400,1.49926262,-1.71299065,0.13343750,-0.03879750,-0.15317750,0.22157264,-1.70944168,0.95176849
1605536983.64388442,0.02891400,0.02891400,-0.98673600,1.73973198,-2.05966863,-0.07656250,-0.59879750,-0.50317750,0.21499562,-1.71002631,0.94124525
1605536983.70703888,0.02830400,0.02867000,-0.98466200,1.50968386,-1.61704068,-0.00656250,0.62620250,0.12682250,0.21499562,-1.71002631,0.94124525
1605536983.77006507,0.03074400,0.02891400,-0.98161200,1.62781642,-1.96985369,0.09843750,0.34620250,-0.18817750,0.22727273,-1.71148787,0.94913768
1605536983.83314109,0.02989000,0.02915800,-0.99003000,1.68491759,-1.81383823,-0.07656250,-0.73879750,-0.29317750,0.22230342,-1.70900322,0.94899152
1605536983.89617848,0.02989000,0.02903600,-0.99186000,1.66052883,-2.07835395,-0.04156250,-0.49379750,-0.43317750,0.22230342,-1.70900322,0.94899152
1605536983.95918059,0.02842600,0.02745000,-0.98039200,1.65112859,-2.00762037,-0.00656250,0.90620250,0.33682250,0.22128033,-1.70432622,0.94884537
1605536984.02225852,0.02867000,0.02720600,-0.98454000,1.72245797,-1.84400710,-0.04156250,0.90620250,0.37182250,0.22128033,-1.70432622,0.94884537
1605536984.08546162,0.02964600,0.02671800,-0.98685800,1.55568918,-1.95350180,-0.11156250,0.10120250,-0.22317750,0.22654195,-1.70739550,0.95147618
1605536984.14846635,0.02867000,0.02915800,-0.98478400,1.65815403,-1.94290368,-0.00656250,0.55620250,0.16182250,0.21967261,-1.70944168,0.95235311
1605536984.21153426,0.02867000,0.02586400,-0.98856600,1.53186955,-1.95757613,-0.35656250,0.80120250,0.19682250,0.21967261,-1.70944168,0.95235311
1605536984.27470326,0.02818200,0.02671800,-0.99015200,1.57898070,-1.76436178,0.48343750,-0.10879750,-0.25817750,0.22347267,-1.70973400,0.94811459
1605536984.33775330,0.02964600,0.02684000,-0.98990800,1.58641469,-1.76473873,0.37843750,-0.35379750,-0.25817750,0.21748027,-1.70491084,0.95059924
1605536984.40077877,0.02964600,0.02635200,-0.99137200,1.55582912,-1.92445170,0.37843750,-0.31879750,-0.22317750,0.21748027,-1.70491084,0.95059924
1605536984.46387410,0.02903600,0.02928000,-0.99222600,1.72338306,-1.92987405,0.06343750,-0.10879750,-0.15317750,0.21894183,-1.70754165,0.95249927
1605536984.52708650,0.03037800,0.02891400,-0.99051800,1.70520341,-1.86941942,0.62343750,-0.77379750,-0.50317750,0.22420345,-1.70944168,0.94957615
1605536984.59020925,0.02964600,0.02757200,-0.99076200,1.62723379,-1.92544721,0.02843750,0.03120250,-0.08317750,0.22420345,-1.70944168,0.94957615
1605536984.65328622,0.03037800,0.02915800,-0.99003000,1.72004237,-1.96893929,0.48343750,-0.49379750,-0.25817750,0.22478807,-1.70944168,0.95045308
1605536984.71632791,0.03147600,0.02854800,-0.99112800,1.67926343,-2.02639969,-0.18156250,0.76620250,0.09182250,0.22478807,-1.70944168,0.96331482
1605536984.77947474,0.02976800,0.02732800,-0.98905400,1.61138876,-1.93060331,-0.11156250,0.52120250,0.19682250,0.22040339,-1.71499562,0.96331482
1605536984.84250784,0.02976800,0.02891400,-0.98942000,1.70741290,-1.93518121,0.30843750,0.03120250,-0.43317750,0.23004969,-1.71002631,0.95556855
1605536984.90563655,0.03184200,0.02793800,-0.99027400,1.64965323,-2.05383676,0.27343750,0.17120250,-0.29317750,0.23004969,-1.71002631,0.95556855
1605536984.96867180,0.02903600,0.02806000,-0.99125000,1.64988550,-1.88443452,0.06343750,0.20620250,-0.25817750,0.21806489,-1.71192634,0.94592224
1605536985.03172922,0.03013400,0.02842600,-0.99149400,1.68771906,-1.96544623,-0.35656250,0.73120250,-0.01317750,0.21967261,-1.71324174,0.95059924
1605536985.09488988,0.02830400,0.02879200,-0.99039600,1.68941691,-1.83967321,-0.04156250,0.45120250,0.16182250,0.21967261,-1.71324174,0.95059924
1605536985.15796232,0.02879200,0.02696200,-0.98978600,3.38367135,-1.86882434,-0.04156250,0.24120250,-0.08317750,0.22858813,-1.71178018,0.94957615
1605536985.22094750,0.02891400,0.02684000,-0.99125000,1.59323245,-1.89208607,-0.14656250,0.34620250,0.12682250,0.21952645,-1.70900322,0.95059924
1605536985.28407884,0.03037800,0.03025600,-0.98844400,1.43573952,-1.97525379,-0.49656250,1.22120250,0.37182250,0.21952645,-1.70900322,0.95059924
1605536985.34711194,0.02891400,0.02757200,-0.99173800,1.86404438,-1.86768218,-0.25156250,0.59120250,0.09182250,0.22712657,-1.71031862,0.94826074
1605536985.41017938,0.02903600,0.02976800,-0.99308000,1.83491993,-1.89313822,-0.32156250,0.80120250,0.19682250,0.22551885,-1.70900322,0.95469161
1605536985.47320676,0.02940200,0.02623000,-0.99064000,1.68748081,-1.91528625,-0.35656250,0.94120250,0.16182250,0.22551885,-1.70900322,0.95469161
1605536985.53623223,0.02830400,0.02781600,-0.99137200,1.60939984,-1.83675334,-0.14656250,0.45120250,0.05682250,0.22084186,-1.71148787,0.95396083
1605536985.59934163,0.02854800,0.02781600,-0.99247000,1.67823019,-1.86361353,-0.07656250,0.52120250,-0.04817750,0.22084186,-1.71148787,0.95396083
1605536985.66229510,0.02952400,0.02842600,-0.99161600,1.66568284,-1.92173486,-0.04156250,0.41620250,0.09182250,0.22522654,-1.71251096,0.95089155
1605536985.72543430,0.03135400,0.02903600,-0.99064000,1.42556620,-0.21922102,0.13343750,0.03120250,-0.18817750,0.21996492,-1.70929553,0.94811459
1605536985.78848791,0.03025600,0.02793800,-0.99015200,1.65993987,-1.97321897,-0.21656250,0.62620250,0.23182250,0.21996492,-1.70929553,0.94811459
1605536985.85171795,0.03037800,0.02879200,-0.99186000,1.58111737,-1.71019938,-0.18156250,0.59120250,0.02182250,0.22215726,-1.71324174,0.95381467
1605536985.91452980,0.02952400,0.03013400,-0.98942000,1.72588832,-1.91831669,-0.28656250,0.80120250,0.09182250,0.22347267,-1.70578778,0.95133002
1605536985.97708082,0.02964600,0.02793800,-0.99112800,1.44168224,-1.94005191,0.34343750,-0.24879750,-0.25817750,0.22347267,-1.70578778,0.95133002
1605536986.03973770,0.02940200,0.02915800,-0.99149400,1.69919086,-1.89145463,-0.21656250,0.24120250,0.12682250,0.21879567,-1.71397252,0.94928384
1605536986.10242581,0.02915800,0.02793800,-0.99186000,1.64601823,-1.89476163,0.23843750,-0.03879750,-0.25817750,0.22128033,-1.70973400,0.95629933
1605536986.16523051,0.02928000,0.02915800,-0.98807800,1.71492728,-1.90028707,-0.04156250,0.27620250,-0.11817750,0.22128033,-1.70973400,0.95629933
1605536986.22785044,0.02781600,0.02915800,-0.98966400,1.71809782,-1.81888424,-0.21656250,0.55620250,0.12682250,0.22741888,-1.70885706,0.94621456
1605536986.29044271,0.02854800,0.02793800,-0.98856600,1.65203619,-1.83036023,0.13343750,-0.14379750,-0.15317750,0.22741888,-1.70885706,0.95308389
1605536986.35305357,0.03111000,0.02635200,-0.99112800,1.55614617,-1.99530873,0.23843750,0.03120250,-0.22317750,0.21806489,-1.70958784,0.95308389
1605536986.41576266,0.02989000,0.02854800,-0.98832200,1.68771465,-1.88017811,-0.63656250,1.11620250,0.33682250,0.22361882,-1.70505700,0.95293774
1605536986.47846723,0.03062200,0.02757200,-0.99149400,1.59073826,-2.05798541,-0.14656250,0.06620250,-0.18817750,0.22361882,-1.70505700,0.95293774
1605536986.54107881,0.02830400,0.02903600,-0.98905400,1.55945711,-1.84375250,-0.04156250,0.31120250,-0.01317750,0.22537270,-1.71017246,0.94957615
1605536986.60391808,0.02976800,0.02964600,-0.99552000,1.67435507,-2.17236891,-0.28656250,0.52120250,0.16182250,0.22157264,-1.71309559,0.95147618
1605536986.66944695,0.02952400,0.02696200,-0.99088400,1.58723031,-1.91320034,-0.07656250,0.24120250,0.05682250,0.22157264,-1.71309559,0.95147618
1605536986.73209810,0.03050000,0.03013400,-0.99039600,1.79376479,-1.99347094,0.02843750,0.34620250,-0.15317750,0.23136510,-1.71441099,0.94679918
1605536986.79476523,0.02854800,0.02976800,-0.98942000,1.74423685,-1.85244429,0.06343750,0.03120250,-0.11817750,0.22025723,-1.71265712,0.94752996
1605536986.85730004,0.02928000,0.02891400,-0.99088400,1.70453859,-1.92517052,-0.46156250,1.25620250,0.26682250,0.22025723,-1.71265712,0.94752996
1605536986.91990662,0.02879200,0.02684000,-0.99100600,1.58453115,-1.97437184,0.13343750,0.03120250,-0.15317750,0.22858813,-1.71397252,0.95454545
1605536986.98254967,0.02830400,0.02769400,-0.98563800,1.64274109,-1.74308314,-0.49656250,1.15120250,0.12682250,0.22829582,-1.71368021,0.95352236
1605536987.04526758,0.02952400,0.02793800,-0.99039600,1.64185977,-1.99655281,-0.14656250,0.94120250,0.12682250,0.22829582,-1.71368021,0.95352236
1605536987.10781789,0.03025600,0.02806000,-0.99478800,1.57172073,-1.84838087,0.06343750,0.48620250,-0.15317750,0.22142648,-1.71046478,0.95249927
1605536987.17037868,0.02989000,0.02928000,-0.99051800,1.70447155,-1.68454192,0.02843750,0.20620250,-0.32817750,0.22142648,-1.71046478,0.95249927
1605536987.23308229,0.02989000,0.02757200,-0.99149400,1.69166478,-1.93349764,-0.21656250,0.69620250,0.58182250,0.22595732,-1.71309559,0.94869921
1605536987.29575682,0.02842600,0.02720600,-0.99125000,1.87533531,-2.03256673,-0.00656250,0.45120250,0.26682250,0.22142648,-1.70783397,0.95293774
1605536987.35829210,0.02903600,0.02879200,-0.99003000,1.68403127,-1.64369508,0.02843750,0.24120250,-0.11817750,0.22142648,-1.70783397,0.95293774
1605536987.42095923,0.02964600,0.02830400,-0.99064000,1.69606283,-1.92370370,-0.14656250,0.66120250,0.12682250,0.22186495,-1.71484946,0.94767612
1605536987.48367739,0.02842600,0.02793800,-0.98978600,1.81447429,-1.85199892,-0.14656250,0.52120250,0.23182250,0.22712657,-1.71309559,0.95074540
1605536987.54624367,0.03001200,0.02745000,-0.99003000,1.63652582,-1.96447584,-0.28656250,0.90620250,0.12682250,0.22712657,-1.71309559,0.95074540
1605536987.60883117,0.02830400,0.02854800,-0.99100600,3.49982003,-1.85243808,0.09843750,0.03120250,-0.08317750,0.21996492,-1.71441099,0.94636071
1605536987.67149782,0.03220800,0.02952400,-0.98881000,1.74088569,-2.07444547,0.62343750,-0.49379750,-0.43317750,0.22259573,-1.71119556,0.94942999
1605536987.73440766,0.02940200,0.02745000,-0.99064000,1.62039383,-1.91156943,-0.35656250,0.76620250,0.09182250,0.22259573,-1.71119556,0.94942999
1605536987.79693699,0.03025600,0.02793800,-0.99039600,1.64898117,-1.91196414,-0.49656250,0.83620250,0.26682250,0.22464192,-1.71470330,0.94489915
1605536987.85948324,0.02989000,0.02928000,-0.99186000,1.72402415,-1.90939257,0.30843750,-0.07379750,-0.11817750,0.22464192,-1.71470330,0.94489915
1605536987.92204213,0.02769400,0.02915800,-0.98722400,1.62612411,-1.58502542,-0.07656250,0.59120250,0.02182250,0.22551885,-1.71251096,0.94197603
1605536987.98469901,0.02757200,0.02891400,-0.99283600,1.91915875,-1.97081764,-0.18156250,0.48620250,-0.01317750,0.22259573,-1.71104940,0.95089155
1605536988.04725838,0.03037800,0.02842600,-0.98954200,1.60933374,-1.99260104,0.02843750,0.27620250,0.05682250,0.22259573,-1.71104940,0.95089155
1605536988.10990238,0.02952400,0.02867000,-0.98954200,1.57557582,-1.74685842,-0.11156250,0.62620250,0.30182250,0.21601871,-1.71236481,0.95235311
1605536988.17264342,0.02928000,0.02903600,-0.98954200,1.63068952,-2.02104723,0.13343750,0.03120250,-0.15317750,0.22581117,-1.71382637,0.95293774
1605536988.23524213,0.02976800,0.03037800,-0.99186000,1.61317847,-1.93894748,-0.14656250,0.55620250,0.16182250,0.22581117,-1.71382637,0.95293774
1605536988.29779625,0.02940200,0.02952400,-0.99039600,1.77223066,-1.91521163,0.09843750,0.34620250,-0.11817750,0.22274189,-1.70988015,0.94840690
1605536988.36031508,0.03001200,0.02928000,-0.98942000,1.63579390,-1.94062268,0.20343750,0.31120250,-0.04817750,0.22084186,-1.71134171,0.94577609
1605536988.42286086,0.03111000,0.02915800,-0.98978600,1.71236263,-2.00308992,-0.42656250,0.90620250,0.02182250,0.22084186,-1.71134171,0.94577609
1605536988.48549175,0.02928000,0.02952400,-0.99149400,1.73936353,-1.90358847,-0.00656250,0.34620250,-0.18817750,0.22142648,-1.70900322,0.95206080
1605536988.54811502,0.02940200,0.02806000,-0.98978600,1.65702861,-1.91300433,0.06343750,0.10120250,-0.11817750,0.22142648,-1.70900322,0.95206080
1605536988.61073399,0.02781600,0.02830400,-0.98759000,1.67480652,-1.87435550,0.02843750,0.24120250,-0.04817750,0.22771120,-1.71411868,0.94855305
1605536988.67328167,0.02891400,0.02964600,-0.98527200,1.75649245,-1.99863769,0.02843750,0.27620250,-0.08317750,0.22098802,-1.71148787,0.94855305
1605536988.73585248,0.02940200,0.02903600,-0.99405600,1.76941538,-1.94773943,-0.04156250,0.48620250,-0.01317750,0.22098802,-1.71148787,0.94855305
1605536988.79843044,0.03098800,0.03013400,-0.99149400,1.75267957,-2.05079661,-0.11156250,0.59120250,0.05682250,0.22244958,-1.71265712,0.94416837
1605536988.86103368,0.03050000,0.02891400,-0.99088400,1.65421752,-1.76939524,0.06343750,0.48620250,0.02182250,0.22011108,-1.71207249,0.95556855
1605536988.92380118,0.02818200,0.02842600,-0.98942000,1.55029927,-1.31947942,-0.00656250,0.13620250,0.05682250,0.22011108,-1.71207249,0.95556855
1605536988.98661590,0.03074400,0.02928000,-0.99247000,1.80117253,-2.09971533,-0.00656250,0.38120250,0.02182250,0.21981877,-1.71265712,0.95586086
1605536989.04921222,0.02976800,0.02940200,-0.99051800,1.68563035,-1.93456333,-0.07656250,0.20620250,0.02182250,0.22610348,-1.71192634,0.95147618
1605536989.11185622,0.03013400,0.02818200,-0.98966400,1.77453467,-1.95285872,-0.00656250,0.59120250,-0.08317750,0.22610348,-1.71192634,0.95147618
1605536989.17459559,0.03086600,0.02989000,-0.98954200,1.86925622,-3.79326881,0.09843750,0.27620250,-0.15317750,0.21952645,-1.70871090,0.95001462
1605536989.23715806,0.02964600,0.02915800,-0.99015200,1.59242741,-1.93373840,0.02843750,0.20620250,-0.11817750,0.21952645,-1.70871090,0.95001462
1605536989.29985785,0.02928000,0.02830400,-0.99088400,1.67700644,-1.91200675,-0.32156250,0.80120250,0.05682250,0.22917276,-1.71251096,0.95147618
1605536989.36234760,0.03086600,0.02903600,-0.99112800,1.71503422,-1.99934742,-0.14656250,0.66120250,0.05682250,0.23209588,-1.70447238,0.95103771
1605536989.42499375,0.02867000,0.02854800,-0.99076200,1.68365322,-1.86902959,0.20343750,-0.07379750,-0.11817750,0.23209588,-1.70447238,0.95103771
1605536989.48763442,0.03013400,0.02976800,-0.98942000,1.75650538,-1.80065387,-0.42656250,0.97620250,0.16182250,0.22215726,-1.71134171,0.94738381
1605536989.55030251,0.02989000,0.02903600,-0.99186000,1.70991676,-1.94459545,-0.32156250,0.97620250,0.19682250,0.22098802,-1.70666472,0.95279158
1605536989.61296439,0.02964600,0.02928000,-0.99125000,1.72507501,-1.89635033,-0.56656250,1.11620250,0.30182250,0.22098802,-1.70666472,0.95279158
1605536989.67563820,0.02976800,0.05904800,-0.99747200,1.84019305,-2.20061953,-0.04156250,-0.03879750,-0.25817750,0.22434961,-1.70798012,0.95542239
1605536989.73828197,0.02891400,0.02830400,-0.98380800,1.43268743,-1.90931633,0.02843750,0.80120250,0.23182250,0.21645718,-1.71294943,0.94752996
1605536989.80093145,0.03050000,0.02989000,-0.99125000,1.84456819,-2.12156514,-0.11156250,0.66120250,-0.01317750,0.21645718,-1.71294943,0.94752996
1605536989.86363435,0.02976800,0.02806000,-0.99027400,1.72211955,-1.72380496,-0.04156250,0.31120250,-0.08317750,0.22434961,-1.71031862,0.94972230
1605536989.92630148,0.03086600,0.02708400,-0.98844400,1.69018246,-1.86142628,-0.04156250,0.31120250,-0.11817750,0.22434961,-1.71031862,0.94972230
1605536989.98902750,0.02952400,0.02964600,-0.99247000,1.63927142,-1.68970197,-0.00656250,0.27620250,0.02182250,0.22171880,-1.70432622,0.95147618
1605536990.05166912,0.02891400,0.02940200,-0.98966400,1.71816978,-1.72802224,-0.00656250,0.52120250,-0.11817750,0.22581117,-1.71061093,0.95103771
1605536990.11442661,0.03025600,0.03037800,-0.99039600,1.57747372,-1.96828297,0.09843750,0.06620250,-0.11817750,0.22581117,-1.71061093,0.95103771
1605536990.17712665,0.02867000,0.02928000,-0.99039600,1.71929901,-1.85565049,-0.42656250,1.18620250,0.23182250,0.23268050,-1.71104940,0.94431453
1605536990.23978686,0.02903600,0.02671800,-0.99051800,1.58022729,-1.88510618,0.13343750,0.17120250,-0.08317750,0.22449576,-1.71002631,0.95249927
1605536990.30242300,0.03050000,0.02854800,-0.99051800,1.67629246,-1.96695298,-0.49656250,0.90620250,0.19682250,0.22449576,-1.71002631,0.95249927
1605536990.36521745,0.03123200,0.02671800,-0.98868800,1.58239984,-2.02242863,0.20343750,-0.03879750,-0.29317750,0.22624963,-1.70958784,0.94913768
1605536990.42786002,0.02806000,0.02806000,-0.99344600,1.64815049,-1.82647454,0.16843750,0.03120250,-0.11817750,0.22347267,-1.70856475,0.94986846
1605536990.49090624,0.02818200,0.02891400,-0.99125000,1.70543261,-1.84142703,-0.14656250,0.55620250,-0.04817750,0.22347267,-1.70856475,0.94986846
1605536990.55403900,0.03074400,0.02769400,-0.99076200,1.63560504,-1.99038559,-0.00656250,0.45120250,-0.01317750,0.22244958,-1.71280327,0.94606840
1605536990.61641765,0.03013400,0.02891400,-0.98844400,1.70861268,-1.97882867,0.16843750,0.34620250,-0.25817750,0.22244958,-1.71280327,0.94606840
1605536990.67820382,0.02806000,0.02891400,-0.98844400,1.89193666,-2.23988608,-0.07656250,0.48620250,-0.08317750,0.22844198,-1.71119556,0.95439930
1605536990.73961854,0.02928000,0.02732800,-0.98856600,1.60677495,-1.89748076,-0.07656250,0.48620250,0.12682250,0.22288804,-1.71280327,0.94621456
1605536990.80102110,0.02854800,0.02757200,-0.99320200,1.62337628,-1.85798129,0.16843750,-0.17879750,-0.08317750,0.22288804,-1.71280327,0.94621456
1605536990.86245012,0.02659600,0.02757200,-0.99722800,1.62392369,-1.90734716,-0.07656250,0.52120250,0.05682250,0.22478807,-1.71397252,0.94928384
1605536990.92387390,0.02793800,0.02757200,-0.99015200,1.75138405,-2.00653214,-0.25156250,0.55620250,0.02182250,0.22303420,-1.71134171,0.95089155
1605536990.98534513,0.02879200,0.02671800,-0.99100600,1.57057520,-1.86821899,0.09843750,0.10120250,-0.08317750,0.22303420,-1.71134171,0.95089155
1605536991.04674721,0.02964600,0.06002400,-0.99271400,1.94041530,-2.03428750,-0.00656250,0.59120250,0.09182250,0.22566501,-1.71236481,0.94752996
1605536991.10816050,0.02940200,0.02830400,-0.98893200,1.67685871,-1.53075134,0.02843750,0.13620250,-0.18817750,0.22566501,-1.71236481,0.94752996
1605536991.16982675,0.02854800,0.02720600,-0.99137200,1.49901307,-1.85263894,0.20343750,0.03120250,-0.11817750,0.22639579,-1.71762643,0.94884537
1605536991.23161459,0.02915800,0.02684000,-0.99003000,1.58614326,-1.87033282,-0.46156250,1.08120250,0.09182250,0.23194972,-1.71017246,0.94636071
1605536991.29435873,0.02818200,0.02757200,-0.99137200,1.62631768,-1.84693046,0.58843750,-0.66879750,-0.32817750,0.23194972,-1.71017246,0.94636071
1605536991.35701919,0.02903600,0.02732800,-0.99137200,1.61225433,-1.81877116,-0.04156250,0.31120250,0.23182250,0.22098802,-1.71104940,0.94782227
1605536991.41968250,0.02964600,0.02818200,-0.98905400,1.75703803,-1.92123354,-0.18156250,1.60620250,0.51182250,0.22639579,-1.70608009,0.94957615
1605536991.48233724,0.02940200,0.02842600,-0.98954200,1.71358035,-2.21667628,-0.07656250,-0.07379750,-0.43317750,0.22639579,-1.70608009,0.94957615
1605536991.54508328,0.02769400,0.02867000,-0.98502800,1.41709933,-1.37549213,-0.07656250,1.32620250,0.26682250,0.22069570,-1.70301082,0.94329144
1605536991.60775661,0.02903600,0.02989000,-0.99161600,1.53545915,-1.60043254,-0.00656250,0.48620250,0.33682250,0.22303420,-1.70681087,0.94636071
1605536991.67040706,0.02915800,0.03025600,-0.99027400,1.89374037,-2.17738035,-0.11156250,0.45120250,0.09182250,0.22303420,-1.70681087,0.94636071
1605536991.73316121,0.03062200,0.02891400,-0.99308000,1.55723026,-1.65051110,-0.04156250,0.20620250,-0.15317750,0.22946507,-1.70593394,0.94928384
1605536991.79591465,0.02830400,0.02879200,-0.99173800,1.87334220,-1.96706567,-0.21656250,0.62620250,0.16182250,0.22946507,-1.70593394,0.94928384
1605536991.85857821,0.03098800,0.02745000,-0.99015200,1.94856528,-2.06374512,-0.18156250,0.55620250,0.05682250,0.22698042,-1.70900322,0.94606840
1605536991.92128348,0.02989000,0.02842600,-0.99112800,1.55727111,-1.95633879,0.20343750,-0.00379750,-0.29317750,0.22698042,-1.70841859,0.94416837
1605536991.98394418,0.02720600,0.02854800,-0.99039600,2.10786376,-1.77984568,-0.25156250,0.69620250,0.12682250,0.22698042,-1.70841859,0.94416837
1605536992.04670620,0.02793800,0.02976800,-0.98966400,1.72345584,-1.81762848,-0.35656250,0.90620250,0.16182250,0.22902660,-1.70520316,0.95074540
1605536992.10944152,0.03123200,0.02720600,-0.99003000,1.60795180,-2.01928417,-0.14656250,0.73120250,-0.08317750,0.22098802,-1.70344928,0.94942999
1605536992.17209864,0.02976800,0.02915800,-0.99137200,1.71099384,-1.92441453,-0.35656250,0.73120250,0.26682250,0.22098802,-1.70344928,0.94942999
1605536992.23488164,0.02842600,0.02928000,-0.99112800,1.71498697,-1.84426494,-0.28656250,0.76620250,0.19682250,0.23121894,-1.70798012,0.95045308
1605536992.29757237,0.02915800,0.02928000,-0.99100600,1.72549080,-1.89676439,-0.21656250,0.66120250,0.05682250,0.22274189,-1.70871090,0.94972230
1605536992.36013579,0.02952400,0.02952400,-0.99247000,1.73707914,-1.88020285,0.02843750,0.13620250,-0.04817750,0.22274189,-1.70871090,0.94972230
1605536992.42284012,0.02940200,0.03001200,-0.99417800,1.76216198,-1.96859709,0.37843750,-0.52879750,-0.32817750,0.22361882,-1.71543408,0.94972230
1605536992.48560357,0.02769400,0.02818200,-0.99234800,1.65991422,-1.86640266,-0.11156250,0.55620250,-0.15317750,0.22361882,-1.71543408,0.94972230
1605536992.54809952,0.02891400,0.02891400,-0.98978600,1.53003685,-1.94132093,0.06343750,0.31120250,-0.08317750,0.22084186,-1.70900322,0.94738381
1605536992.61078954,0.02915800,0.02854800,-0.99576400,1.84341256,-2.08488234,-0.07656250,0.55620250,-0.18817750,0.22171880,-1.71002631,0.95396083
1605536992.67347050,0.02830400,0.02830400,-0.99149400,1.73420110,-1.90546776,-0.18156250,0.62620250,0.19682250,0.22171880,-1.71002631,0.95396083
1605536992.73614287,0.02940200,0.02781600,-1.02394600,1.57801473,-1.82622771,-0.14656250,0.48620250,0.09182250,0.22215726,-1.71309559,0.95089155
1605536992.79868793,0.02903600,0.02915800,-0.98917600,1.70832509,-1.61924012,0.06343750,0.13620250,0.09182250,0.22698042,-1.70798012,0.94650687
1605536992.86137271,0.02940200,0.02732800,-0.99125000,1.69472989,-1.93668025,0.09843750,0.10120250,-0.18817750,0.22698042,-1.70798012,0.94650687
1605536992.92393446,0.02940200,0.02830400,-0.98966400,1.81232636,-3.70744912,-0.25156250,0.87120250,0.19682250,0.22537270,-1.70973400,0.94387606
1605536992.98669243,0.02940200,0.02915800,-0.99222600,1.62213593,-1.92103259,-0.11156250,0.52120250,-0.04817750,0.22756504,-1.70622625,0.95483777
1605536993.04920602,0.02903600,0.02708400,-0.99051800,1.59619349,-1.88714852,-0.18156250,0.66120250,-0.04817750,0.22756504,-1.70622625,0.95483777
1605536993.11180782,0.03025600,0.02928000,-0.99027400,1.72876812,-1.96360613,0.06343750,0.20620250,-0.32817750,0.22858813,-1.70491084,0.94460684
1605536993.17458534,0.02830400,0.02867000,-0.99051800,1.69357451,-1.85070501,0.20343750,0.03120250,-0.22317750,0.22858813,-1.70491084,0.94460684
1605536993.23717070,0.02830400,0.02867000,-0.99015200,1.69165863,-1.94054789,-0.25156250,0.83620250,-0.01317750,0.22157264,-1.70798012,0.94402222
1605536993.29987335,0.02976800,0.02745000,-0.98881000,1.62343757,-1.77349556,0.30843750,-0.17879750,-0.43317750,0.22785735,-1.70900322,0.95016077
1605536993.36255622,0.02879200,0.02891400,-0.99454400,1.69844126,-1.86973983,-0.11156250,0.69620250,0.02182250,0.22785735,-1.70900322,0.95016077
1605536993.42531919,0.02928000,0.02635200,-0.98722400,1.56237954,-1.71239131,-0.07656250,0.38120250,-0.04817750,0.22201111,-1.70754165,0.95249927
1605536993.48813105,0.02891400,0.02854800,-0.98844400,1.49685073,-1.80242196,-0.07656250,0.24120250,0.12682250,0.22814966,-1.71031862,0.95191464
1605536993.55084062,0.02830400,0.06173200,-0.99527600,1.94241363,-2.13477635,-0.00656250,0.62620250,0.16182250,0.22814966,-1.71031862,0.95191464
1605536993.61349869,0.02830400,0.02903600,-0.99417800,1.53037400,-2.03901461,0.06343750,-0.24879750,-0.39817750,0.22990354,-1.70827243,0.94738381
1605536993.67620063,0.02830400,0.02903600,-0.99076200,1.75401539,-1.73489608,-0.04156250,0.31120250,0.16182250,0.22434961,-1.71309559,0.95030693
1605536993.73877525,0.02867000,0.02830400,-0.99137200,1.77379270,-2.05781566,-0.18156250,0.45120250,0.12682250,0.22434961,-1.71309559,0.95030693
1605536993.80144072,0.02952400,0.02842600,-0.99112800,1.78594220,-1.89359741,-0.11156250,0.59120250,0.33682250,0.22493423,-1.71470330,0.95513008
1605536993.86410308,0.02684000,0.02806000,-0.99137200,1.87780910,-1.82469873,-0.14656250,0.48620250,0.05682250,0.22493423,-1.71470330,0.95513008
1605536993.92680955,0.02928000,0.02867000,-0.99051800,1.54101461,-1.91043812,0.20343750,0.06620250,-0.18817750,0.23078047,-1.70710319,0.96009939
1605536993.98946786,0.02976800,0.02964600,-0.99076200,1.52826709,-1.92414635,-0.11156250,0.34620250,-0.04817750,0.22011108,-1.70827243,0.95776089
1605536994.05202198,0.02781600,0.02867000,-0.99161600,1.68283201,-1.81202504,-0.25156250,0.69620250,0.26682250,0.22011108,-1.70827243,0.95776089
1605536994.11476946,0.02964600,0.02879200,-0.99247000,1.69280236,-1.92034643,0.09843750,-0.10879750,-0.11817750,0.22610348,-1.70841859,0.95191464
1605536994.17732167,0.02952400,0.02806000,-0.99234800,1.65124954,-1.91398287,-0.00656250,0.24120250,0.02182250,0.21864952,-1.70520316,0.95089155
1605536994.23992443,0.02976800,0.02867000,-0.99015200,1.69166478,-1.93349764,-0.04156250,0.38120250,-0.01317750,0.21864952,-1.70520316,0.95089155
1605536994.30259776,0.02830400,0.03001200,-0.99308000,1.76412752,-1.90727334,0.44843750,-0.31879750,-0.46817750,0.21733411,-1.70505700,0.95162233
1605536994.36526728,0.02928000,0.02769400,-0.99259200,1.63133982,-1.91525375,0.58843750,-0.38879750,-0.43317750,0.22449576,-1.70695703,0.94752996
1605536994.42800093,0.02854800,0.02867000,-0.98966400,1.67123156,-2.03311184,-0.11156250,0.83620250,0.09182250,0.22449576,-1.70695703,0.94752996
1605536994.49061632,0.03001200,0.02867000,-0.98856600,1.66607297,-1.93627966,-0.04156250,-0.59879750,-0.36317750,0.22215726,-1.71002631,0.94519146
1605536994.55326343,0.02891400,0.02769400,-0.98417400,1.60244430,-1.90146172,-0.18156250,1.15120250,0.51182250,0.22215726,-1.71002631,0.94519146
1605536994.61589599,0.02976800,0.02915800,-0.99173800,1.80047155,-2.10502590,-0.00656250,0.48620250,-0.08317750,0.22142648,-1.70783397,0.94431453
1605536994.67851138,0.02915800,0.02879200,-0.99088400,1.70153747,-1.91490678,-0.07656250,0.38120250,-0.22317750,0.22756504,-1.70491084,0.95045308
1605536994.74105811,0.03013400,0.02818200,-0.99161600,1.53313718,-1.84460839,-0.11156250,0.41620250,-0.08317750,0.22756504,-1.70491084,0.95045308
1605536994.80378222,0.03001200,0.03123200,-0.99198200,1.84011597,-1.99751142,-0.14656250,0.59120250,0.12682250,0.21938030,-1.71134171,0.94796843
1605536994.86656380,0.02842600,0.03050000,-0.98966400,1.70001152,-1.85714993,-0.25156250,0.55620250,0.05682250,0.22683426,-1.70885706,0.94899152
1605536994.92912221,0.02928000,0.02854800,-0.99137200,1.79354578,-1.90146192,-0.00656250,0.24120250,-0.11817750,0.22683426,-1.70885706,0.94899152
1605536994.99167228,0.02867000,0.02928000,-0.99039600,1.74359049,-1.88628509,0.13343750,-0.10879750,-0.18817750,0.22434961,-1.70973400,0.94489915
1605536995.05447602,0.02915800,0.02928000,-0.99027400,1.72840712,-1.89966854,-0.14656250,0.66120250,0.09182250,0.22069570,-1.71338790,0.94621456
1605536995.11707544,0.02818200,0.02781600,-0.99149400,1.63470297,-1.83409621,-0.07656250,0.38120250,-0.11817750,0.22069570,-1.71338790,0.94621456
1605536995.17971945,0.02854800,0.02854800,-0.99003000,1.68487132,-1.87025290,-0.28656250,0.87120250,0.02182250,0.22946507,-1.70900322,0.94796843
1605536995.24245787,0.02928000,0.02720600,-0.98929800,1.60850148,-1.82214038,-0.11156250,0.38120250,-0.15317750,0.22946507,-1.70900322,0.94796843
1605536995.30524802,0.02952400,0.02684000,-0.99137200,1.58399994,-1.92442912,0.13343750,-0.03879750,-0.22317750,0.22084186,-1.70754165,0.95133002
1605536995.36780047,0.02781600,0.02696200,-0.98844400,1.59586079,-1.64693600,-0.04156250,0.24120250,0.09182250,0.22814966,-1.70944168,0.95206080
1605536995.43049955,0.02989000,0.02793800,-0.99271400,1.80682062,-2.04848569,-0.04156250,-0.56379750,-0.39817750,0.22814966,-1.70944168,0.95206080
1605536995.49318171,0.02854800,0.02806000,-0.98893200,1.91952438,-1.98481313,-0.18156250,1.04620250,-0.01317750,0.22888044,-1.70827243,0.95074540
1605536995.55586934,0.02818200,0.02745000,-0.98332000,1.54702333,-1.87457162,-0.28656250,1.08120250,0.40682250,0.22186495,-1.71338790,0.94446068
1605536995.61858296,0.02891400,0.02806000,-0.99003000,1.78557682,-1.90782957,-0.00656250,0.48620250,0.12682250,0.22186495,-1.71338790,0.94446068
1605536995.68121433,0.02830400,0.02720600,-0.99027400,1.45463115,-1.98114170,-0.04156250,0.38120250,0.23182250,0.22581117,-1.70900322,0.94650687
1605536995.74391317,0.02952400,0.02891400,-0.99064000,1.52935483,-1.72192489,-0.04156250,0.41620250,-0.32817750,0.22698042,-1.71002631,0.94372990
1605536995.80668354,0.03037800,0.02793800,-0.98942000,1.70869346,-2.11323224,0.23843750,-0.14379750,-0.08317750,0.22698042,-1.71002631,0.94372990
1605536995.86922264,0.02842600,0.02891400,-0.99112800,1.54895596,-3.65981368,-0.18156250,0.66120250,0.12682250,0.22464192,-1.71280327,0.94899152
1605536995.93189812,0.02854800,0.02793800,-0.99161600,1.75151072,-1.86620039,-0.25156250,0.69620250,0.19682250,0.22464192,-1.71280327,0.94899152
1605536995.99467301,0.03025600,0.02928000,-0.99137200,1.72418805,-1.95887325,-0.18156250,0.66120250,0.16182250,0.22844198,-1.70695703,0.95513008
1605536996.05730391,0.02940200,0.02806000,-0.99234800,1.65006609,-1.90570853,-0.21656250,0.73120250,0.05682250,0.22405729,-1.70608009,0.95659164
1605536996.11993098,0.02940200,0.02623000,-0.98905400,1.56631209,-1.93000740,0.20343750,-0.07379750,-0.18817750,0.22405729,-1.70608009,0.95659164
1605536996.18260670,0.02903600,0.02952400,-0.99088400,1.73979522,-1.88991401,0.34343750,-0.45879750,-0.29317750,0.22157264,-1.70739550,0.95103771
1605536996.24528694,0.02940200,0.02659600,-0.99198200,1.56901023,-1.87412327,0.37843750,-0.42379750,-0.08317750,0.22537270,-1.70447238,0.95235311
1605536996.30787086,0.02891400,0.02769400,-0.99210400,1.63215909,-1.87386891,-0.11156250,0.45120250,-0.11817750,0.22537270,-1.70447238,0.95235311
1605536996.37061882,0.02867000,0.02757200,-0.98893200,1.63032847,-1.73799562,-0.32156250,0.87120250,0.16182250,0.22128033,-1.70856475,0.95264543
1605536996.43332362,0.02830400,0.02903600,-0.98539400,1.70676078,-1.92053785,-0.11156250,0.69620250,0.02182250,0.22756504,-1.71251096,0.95176849
1605536996.49609613,0.02915800,0.02964600,-0.99369000,1.77012306,-1.87110193,0.06343750,0.03120250,0.02182250,0.22756504,-1.71251096,0.95176849
1605536996.55869007,0.02952400,0.03001200,-0.99271400,1.58908065,-1.73924934,-0.00656250,0.27620250,0.05682250,0.22771120,-1.70944168,0.95410699
1605536996.62126040,0.02915800,0.02842600,-0.99039600,1.44690507,-1.46976863,0.02843750,0.27620250,0.02182250,0.22771120,-1.70944168,0.95410699
1605536996.68393922,0.02989000,0.02793800,-0.99173800,1.75363430,-1.83405858,-0.11156250,0.45120250,-0.01317750,0.21470330,-1.71499562,0.95089155
1605536996.74668980,0.03025600,0.02720600,-0.99088400,1.69772117,-2.12288856,-0.14656250,0.52120250,0.05682250,0.22873429,-1.70754165,0.95659164
1605536996.80925393,0.03001200,0.02842600,-0.99076200,1.59825996,-1.94575648,-0.11156250,0.62620250,-0.08317750,0.22873429,-1.70754165,0.95659164
1605536996.87191677,0.02903600,0.02745000,-0.99088400,1.43062192,-1.89119231,0.23843750,-0.00379750,-0.22317750,0.21674949,-1.70520316,0.94855305
1605536996.93463326,0.02867000,0.02928000,-0.99210400,1.63610000,-1.87090586,-0.14656250,0.48620250,0.16182250,0.21967261,-1.71119556,0.95220696
1605536996.99726653,0.02793800,0.02757200,-0.99088400,1.61544915,-1.81477306,0.02843750,0.34620250,-0.25817750,0.21967261,-1.71119556,0.95220696
1605536997.05992436,0.02830400,0.02830400,-0.99100600,1.67401469,-1.85233874,0.06343750,0.17120250,-0.18817750,0.22303420,-1.70593394,0.95030693
1605536997.12262726,0.02891400,0.02806000,-0.99198200,1.66246458,-1.89036855,-0.28656250,0.90620250,0.30182250,0.22405729,-1.71134171,0.95264543
1605536997.18530250,0.02891400,0.02757200,-0.98942000,1.62942679,-1.88543230,-0.46156250,1.18620250,0.05682250,0.22405729,-1.71134171,0.95264543
1605536997.24787188,0.02915800,0.02818200,-0.98978600,1.66408203,-1.91299838,-0.42656250,1.18620250,0.16182250,0.22084186,-1.71528793,0.94942999
1605536997.31050277,0.02915800,0.02940200,-0.98820000,1.73730745,-1.95098329,0.30843750,0.06620250,-0.32817750,0.22084186,-1.71528793,0.94942999
1605536997.37320709,0.02928000,0.02732800,-0.99759400,1.58128644,-1.98373786,-0.04156250,0.52120250,0.12682250,0.22741888,-1.70754165,0.94621456
1605536997.43584299,0.02867000,0.06124400,-0.99222600,1.85697378,-2.00713248,-0.07656250,1.88620250,0.54682250,0.21718796,-1.71134171,0.95498392
1605536997.49852443,0.02989000,0.02818200,-0.98832200,1.56775844,-1.69659093,0.06343750,0.73120250,0.19682250,0.21718796,-1.71134171,0.95498392
1605536997.56118655,0.02891400,0.02757200,-0.99137200,1.62232623,-1.67297751,-0.04156250,0.48620250,0.30182250,0.22508039,-1.70958784,0.95001462
1605536997.62387371,0.02854800,0.02830400,-0.99173800,1.83453305,-1.97080488,-0.25156250,0.69620250,-0.01317750,0.22405729,-1.71002631,0.94446068
1605536997.68667865,0.02903600,0.02793800,-0.99173800,1.65578263,-1.96813122,-0.18156250,0.59120250,-0.11817750,0.22405729,-1.71002631,0.94446068
1605536997.74928164,0.02879200,0.02806000,-0.99222600,1.83895187,-2.03138286,0.13343750,0.10120250,-0.04817750,0.21718796,-1.71645718,0.95074540
1605536997.81190276,0.02928000,0.02879200,-0.99125000,1.75451530,-3.72596852,-0.11156250,0.45120250,-0.08317750,0.22581117,-1.70798012,0.94636071
1605536997.87470531,0.03318400,0.02610800,-0.98929800,1.73549852,-0.32468091,-0.00656250,0.20620250,-0.01317750,0.22581117,-1.70798012,0.94636071
1605536997.93736172,0.02318000,0.02159400,-0.98905400,1.47168610,-1.53831424,-0.18156250,0.55620250,0.33682250,0.22069570,-1.71558024,0.95162233
1605536998.00003648,0.04660400,0.02879200,-0.98149000,1.68062935,-2.87830707,-0.35656250,2.55120250,3.69682250,0.22069570,-1.71558024,0.95162233
1605536998.06275129,0.03025600,0.01671400,-0.99552000,0.98285578,-1.93024593,-0.18156250,-10.85379750,12.83182250,0.22449576,-1.71002631,0.95235311
1605536998.12547803,0.01354200,0.03599000,-0.99527600,2.11252806,-0.99418520,0.58843750,-44.52379750,10.87182250,0.23750365,-1.71616486,0.95162233
1605536998.18809748,-0.13017400,0.04404200,-0.98624800,2.65012121,7.54156652,1.77843750,-97.40879750,9.15682250,0.23750365,-1.71616486,0.95162233
1605536998.25085068,-0.27962400,0.03062200,-0.89535800,1.97696660,16.56686688,3.98343750,-126.35379750,10.24182250,0.31292020,-1.72654195,0.91581409
1605536998.31353664,-0.44347000,-0.01805600,-0.85583000,-1.03784065,27.32255082,16.54843750,-137.02879750,15.35182250,0.47983046,-1.73516516,0.81964338
1605536998.37620354,-0.54692600,-0.08564400,-0.81849800,-4.88378880,34.32735634,35.48343750,-120.26379750,8.77182250,0.47983046,-1.73516516,0.81964338
1605536998.43879366,-0.71784800,0.05514400,-0.87535000,1.89898858,39.07887538,-11.62656250,-131.91879750,0.40682250,0.60304005,-1.71528793,0.66121017
1605536998.50143766,-0.65318800,0.02684000,-0.74529800,1.78056632,41.58963923,17.35343750,-74.16879750,6.18182250,0.62686349,-1.70374160,0.53273897
1605536998.56423426,-0.72053200,0.05233800,-0.63220400,3.33789045,48.01439780,-21.91656250,-108.01379750,8.49182250,0.62686349,-1.70374160,0.53273897
1605536998.62692308,-0.70882000,-0.01781200,-0.42090000,-1.57634010,58.80647444,25.61343750,-93.97879750,16.22682250,0.61195557,-1.70593394,0.43861444
1605536998.68960381,-0.78360600,-0.03257400,-0.45079000,-1.95113193,60.95324203,-19.11656250,-113.40379750,-15.48317750,0.61195557,-1.70593394,0.36378252
1605536998.75237107,-0.89657800,0.01134600,-0.39552400,0.84522082,66.62998712,-8.16156250,-102.09879750,-13.69817750,0.60157849,-1.69804151,0.35194388
1605536998.81514001,-0.93988800,0.02415600,-0.39833000,1.22776748,67.35474819,-7.98656250,-64.15879750,-0.39817750,0.57965507,-1.67874890,0.27418883
1605536998.87767482,-0.84045800,0.06844200,-0.37942000,3.92420187,74.31357532,-7.42656250,-5.98879750,10.73182250,0.57965507,-1.67874890,0.27418883
1605536998.94032168,-1.05737400,-0.03940600,-0.16396800,-1.88868137,82.70665991,-9.35156250,2.93620250,-1.72817750,0.58140894,-1.68298743,0.24408068
1605536999.00283599,-0.96270200,-0.04050400,-0.20093400,-2.32878216,78.25874012,-9.28156250,-21.84379750,-4.70317750,0.57585501,-1.68459515,0.24583455
1605536999.06554508,-0.95379600,-0.01561600,-0.17409400,-0.89032493,79.90510116,-14.88156250,-32.06379750,-7.95817750,0.57585501,-1.68459515,0.24583455
1605536999.12811947,-0.98637000,-0.02635200,-0.10028400,-1.48744740,83.37271045,-3.64656250,-30.10379750,-0.29317750,0.58550132,-1.67114879,0.21908799
1605536999.19081640,-0.98258800,-0.00658800,-0.08710800,-0.34752282,82.90981763,-0.70656250,-18.34379750,6.81182250,0.58184741,-1.67187957,0.19935691
1605536999.25339413,-0.97648800,-0.00585600,-0.08710800,-0.30790491,84.68573666,-4.38156250,-13.72379750,6.25182250,0.58184741,-1.67187957,0.19935691
1605536999.31601286,-0.96075000,0.03013400,-0.09235400,1.88303728,83.81669769,-2.24656250,-18.62379750,1.03682250,0.57468576,-1.67538731,0.18678749
1605536999.37852478,-1.00552400,-0.02647400,-0.01183400,-0.24515866,89.05587442,-9.77156250,-21.70379750,2.57682250,0.57468576,-1.67538731,0.18678749
1605536999.44001794,-0.99003000,0.00829600,-0.03172000,0.64085739,88.23159862,-4.94156250,-3.88879750,-0.74817750,0.58170126,-1.67129494,0.16837182
1605536999.50147772,-0.99576400,-0.00122000,-0.02244800,-0.03630947,88.42441114,-0.46156250,0.87120250,-0.18817750,0.56796258,-1.67436422,0.16237942
1605536999.56289577,-0.98502800,0.03013400,-0.03257400,0.23795845,87.89738556,0.30843750,0.87120250,0.05682250,0.56796258,-1.67436422,0.16237942
1605536999.62445211,-1.00625600,-0.00341600,-0.05246000,-0.06910722,86.13165773,0.79843750,2.30620250,-1.72817750,0.57337036,-1.66997954,0.16574101
1605536999.68591237,-0.99161600,0.00134200,-0.03172000,0.11135570,87.64445263,0.30843750,0.03120250,0.51182250,0.57497808,-1.66617948,0.17728734
1605536999.74735832,-0.98539400,0.01000400,-0.02854800,0.61464146,88.03142191,-0.07656250,1.81620250,0.16182250,0.57497808,-1.66617948,0.17728734
1605536999.80878067,-0.99186000,0.00231800,-0.04013800,0.25859373,87.13680570,0.37843750,1.04620250,-0.01317750,0.57892429,-1.67494885,0.17436422
1605536999.87019348,-0.98990800,0.00305000,-0.03306200,0.21029851,87.81760748,-0.11156250,1.36120250,-0.04817750,0.57892429,-1.67494885,0.17436422
1605536999.93166304,-0.98881000,0.00402600,-0.03623400,0.26682216,87.67785439,0.27343750,0.62620250,-0.04817750,0.57950892,-1.67231804,0.17348728
1605536999.99310780,-0.98673600,0.00500200,-0.03416000,0.30254806,87.31891937,-0.14656250,1.43120250,0.02182250,0.57512423,-1.66983338,0.16632564
1605537000.05461192,-0.98868800,0.00561200,-0.03965000,0.14693890,88.06657994,0.16843750,0.83620250,0.16182250,0.57512423,-1.66983338,0.16632564
1605537000.11610365,-0.98746800,0.00488000,-0.03769800,0.31681233,87.58329658,0.62343750,-0.38879750,0.16182250,0.57760889,-1.67334113,0.17480269
1605537000.17867208,-0.98868800,0.00585600,-0.03672200,0.37362202,87.62985438,0.69343750,-0.14379750,-0.43317750,0.57147033,-1.67465653,0.17173341
1605537000.24140668,-0.99027400,0.00317200,-0.03965000,0.21740655,87.48564100,-0.07656250,0.62620250,0.44182250,0.57147033,-1.67465653,0.17173341
1605537000.30413437,-0.98685800,0.00695400,-0.04148000,0.43769535,87.34468193,-0.04156250,0.48620250,0.40682250,0.57658579,-1.67085647,0.16457176
1605537000.36671996,-0.99027400,0.00329400,-0.03843000,0.10444655,87.56293208,0.13343750,0.59120250,0.02182250,0.57380883,-1.67904122,0.16749488
1605537000.42943287,-0.98624800,0.00561200,-0.02610800,0.50124211,88.20176512,-0.04156250,-0.10879750,0.26682250,0.57380883,-1.67904122,0.16749488
1605537000.49209523,-0.98844400,0.00500200,-0.03379400,0.42254358,87.27630382,1.21843750,0.97620250,0.05682250,0.58199357,-1.66968723,0.17304882
1605537000.55482984,-0.98746800,0.00671000,-0.00451400,0.40934386,88.07399471,0.34343750,0.80120250,0.44182250,0.58199357,-1.66968723,0.17304882
1605537000.61749530,-0.98722400,0.00695400,-0.03940600,0.62327247,87.14956528,-0.04156250,1.50120250,0.30182250,0.57512423,-1.67582578,0.17100263
1605537000.68015051,-0.99625200,0.00268400,-0.03940600,0.85963434,85.51849989,1.28843750,-4.97379750,0.89682250,0.58082432,-1.66954107,0.17348728
1605537000.74283147,-0.98161200,0.00732000,-0.02854800,0.48234586,88.29495214,1.00843750,1.95620250,-0.22317750,0.58082432,-1.66954107,0.17348728
1605537000.80541968,-0.98698000,0.00390400,-0.03757600,0.15417716,87.56182973,-0.49656250,4.72120250,-1.20317750,0.57337036,-1.66807951,0.17071032
1605537000.86806464,-0.99442200,-0.00329400,-0.04709200,-0.16976441,87.14582529,-0.98656250,2.09620250,-0.92317750,0.56752412,-1.67012569,0.17757966
1605537000.93092823,-0.98466200,0.00427000,-0.03269600,-0.00870563,88.06275324,0.34343750,-1.19379750,-0.04817750,0.56752412,-1.67012569,0.17757966
1605537000.99370074,-0.98746800,-0.00109800,-0.03599000,-0.02980432,87.86204617,0.44843750,3.60120250,-0.85317750,0.57907045,-1.66983338,0.17290266
1605537001.05651712,-0.99088400,-0.00012200,-0.04831200,0.02681969,87.58790684,-0.98656250,0.27620250,0.72182250,0.56957030,-1.67027185,0.17348728
1605537001.11909747,-0.98588200,0.00280600,-0.03782000,0.19681338,87.50016744,0.76343750,0.97620250,0.23182250,0.56957030,-1.67027185,0.17348728
1605537001.18166900,-0.98905400,0.00134200,-0.04465200,0.11156989,87.20043680,-0.63656250,1.60620250,0.12682250,0.57366267,-1.67158726,0.16807951
1605537001.24444079,-0.98990800,0.00012200,-0.04648200,0.04092593,87.09807480,0.06343750,-0.59879750,0.54682250,0.57366267,-1.67158726,0.16807951
1605537001.30708671,-0.98698000,0.00231800,-0.04148000,0.16826384,87.37838458,0.09843750,1.01120250,-0.25817750,0.57015493,-1.66924876,0.16895645
1605537001.36850905,-0.98917600,0.00097600,-0.04733600,0.35079032,87.32277890,-0.32156250,1.57120250,0.09182250,0.57000877,-1.67319497,0.16924876
1605537001.42998075,-0.98905400,0.00146400,-0.04489600,0.11860671,87.43414499,-0.04156250,1.43120250,0.47682250,0.57000877,-1.67319497,0.16924876
1605537001.49138665,-0.98795600,0.00280600,-0.05233800,0.19703553,86.73858864,0.20343750,1.74620250,0.54682250,0.57468576,-1.67187957,0.17158726
1605537001.55284047,-0.98881000,0.00024400,-0.05246000,0.07622376,87.16054268,-0.35656250,-1.26379750,0.23182250,0.58213973,-1.66340251,0.17187957
1605537001.61436558,-0.98771200,-0.00183000,-0.04026000,0.15404829,87.11898069,-0.18156250,0.17120250,1.03682250,0.58213973,-1.66340251,0.17187957
1605537001.67583489,-0.99039600,0.00305000,-0.05368000,0.21007809,86.68000435,-0.00656250,0.06620250,0.19682250,0.57000877,-1.67027185,0.17772581
1605537001.73728704,-0.98685800,0.00158600,-0.04636000,-0.04374949,87.10434167,-0.39156250,-0.73879750,0.47682250,0.57000877,-1.67027185,0.17772581
1605537001.79872584,-0.98771200,0.00378200,-0.04233400,0.17529494,87.47760455,-0.14656250,1.15120250,-0.25817750,0.57366267,-1.66486407,0.16895645
1605537001.86018920,-0.98734600,0.00085400,-0.04672600,0.08337117,87.07786270,0.65843750,-0.28379750,-0.11817750,0.58126279,-1.66427945,0.17304882
1605537001.92161703,-0.98942000,0.00134200,-0.04404200,0.11810681,87.25142244,-0.42656250,-1.36879750,0.86182250,0.58126279,-1.66427945,0.17304882
1605537001.98304868,-0.98929800,0.00317200,-0.04209000,0.13977543,87.57480526,-0.25156250,-0.52879750,0.30182250,0.57366267,-1.66997954,0.17100263
1605537002.04459023,-0.98722400,0.00109800,-0.03794200,0.09753891,87.40925757,0.16843750,0.73120250,0.65182250,0.58082432,-1.66851798,0.17977200
1605537002.10726714,-0.98966400,0.00219600,-0.04099200,0.16087366,87.18727004,-0.25156250,1.57120250,0.58182250,0.58082432,-1.66851798,0.17977200
1605537002.16999602,-0.98893200,0.00134200,-0.04282200,0.11157624,87.30624357,-0.18156250,1.15120250,0.05682250,0.57263958,-1.66997954,0.17129494
1605537002.23291731,-0.98820000,0.00341600,-0.04575000,0.23159388,87.13138669,0.02843750,0.55620250,0.19682250,0.57263958,-1.66997954,0.18547208
1605537002.29560232,-0.98868800,0.00085400,-0.04062600,0.08328714,87.43573058,0.41343750,-0.77379750,0.16182250,0.57600117,-1.67582578,0.18547208
1605537002.35829568,-0.98746800,0.00475800,-0.04623800,0.31021680,87.08710167,-0.28656250,1.11620250,0.40682250,0.57804735,-1.66705642,0.17933353
1605537002.42095637,-0.98722400,0.00183000,-0.04538400,0.19018942,87.13901036,-0.32156250,0.62620250,-0.11817750,0.57804735,-1.66705642,0.17933353
1605537002.48372078,-0.98820000,-0.02818200,-0.04331000,0.01266596,87.27790273,-0.14656250,-0.45879750,0.05682250,0.57600117,-1.67158726,0.18313359
1605537002.54641843,-0.98783400,0.00305000,-0.04892200,0.40310302,86.91542010,-0.11156250,0.24120250,0.19682250,0.57877814,-1.67041801,0.17947968
1605537002.60913181,-0.98759000,0.00268400,-0.04953200,0.18981005,86.90454865,-0.35656250,1.88620250,0.09182250,0.57877814,-1.67041801,0.17947968
